Time,Accel_x_earth,Accel_y_earth,Accel_z_earth
8.004723083,0.042233636526355284,-0.09479963057910215,9.829384270425669
8.014770083,0.11546198683989435,-0.10034724743771646,9.833484653073938
8.024816083,0.10444664174120782,-0.023167670613038555,9.84559796104857
8.034862083,0.14763695142186473,0.03088999492911573,9.898649316834994
8.044908083,0.06705711851939644,0.13144577090176876,9.991986006811029
8.054954083,0.05345239708244022,0.05408747014499588,9.937416224064116
8.065001083,0.02865815194497913,0.05031848357971128,9.894461446566895
8.075047083,0.005815819885662922,0.010604866701188119,9.871932850315414
8.085093083,-0.018299481500997167,-0.007675461714335611,9.882722099791014
8.095139083,-0.044739449100051364,-0.09093415985157915,9.866796436404952
8.105185083,-0.06542800985729619,-0.05763721206393264,9.831707739132716
8.115232083,-0.008624879658480284,-0.11779915223157683,9.799139807292349
8.125278083,-0.014293365878851832,-0.11653157928996985,9.812290577361912
8.135324083,-0.03822143047500989,-0.0530224475041978,9.805931638521784
8.145370083,-0.02811411289140987,-0.0560911289281269,9.799504335338126
8.155416083,-0.04180138602100266,-0.029104507966751392,9.818926808368017
8.165463083,-0.041435060569196144,-0.040946714224950324,9.805438384868589
8.175509083,-0.04768831899456575,-0.052125847080328,9.805550520099645
8.185555083,-0.03619416586057196,-0.059794554164791215,9.777789246605654
8.195601083,-0.0473838195862668,-0.036496693586740826,9.794725659210787
8.205647083,-0.054432094380339635,-0.02070746449903956,9.811702462802026
8.215694083,-0.06406680725576192,0.02528670754114336,9.808342640048776
8.225740083,-0.06908561342252127,0.05782582448323433,9.797765937460722
8.235786083,-0.07216360982410121,0.039664923355157304,9.807521290934178
8.245832083,-0.06438581410050788,0.04142835896167447,9.813281984313067
8.255878083,-0.05484101834666975,0.04314398812796178,9.829632108612461
8.265925083,-0.058746318386590925,0.053692737654538664,9.825308681185566
8.275971083,-0.05512106579395933,0.040311202542199075,9.833722004271252
8.286017083,-0.06744231649660459,0.033226536943662115,9.826505437922362
8.296063083,-0.06064515212477113,0.03111380459953569,9.815291813365635
8.306109083,-0.043373159755083754,0.06727543770918328,9.821566820190235
8.316156083,-0.07021255078133833,0.06729187815255304,9.83134268820126
8.326202083,-0.05114048232566559,0.02775093593820573,9.845061451346156
8.336248083,-0.03768505094231692,0.008658204744448136,9.824332300433065
8.346294083,-0.043119421632242014,-0.009838691934148405,9.829049466245264
8.356340083,-0.021937740646956732,-0.010366493489751598,9.824389951708929
8.366387083,-0.028137063415392783,-0.015818771387181317,9.839045945445479
8.376433083,-0.03085383276108015,-0.059755143255457825,9.826079255404784
8.386479083,-0.0021666000041446767,-0.04952935702202625,9.812569529824932
8.396525083,-0.020057795267799484,-0.009748891356034435,9.82670036612995
8.406571083,-0.022108260010911686,0.00034113811746360677,9.850248123996272
8.416618083,-0.024729062206767148,-0.01452605097661915,9.82172808735838
8.426664083,-0.029917830424993977,-0.05056921028035811,9.839808466269764
8.436710083,-0.007026070739240774,-0.08653295731205865,9.792520816822762
8.446756083,-0.011561888298773429,-0.05741188410103897,9.823089244634804
8.456802083,-0.024202750305074804,-0.04063436865084143,9.824369370313404
8.466849083,-0.040628104038154214,0.012121087771472316,9.875908237717674
8.476895583,-0.07739688768571197,0.07504874948521975,9.894870689839003
8.486941583,-0.06892400181452221,0.09356326839391979,9.857247338623495
8.496987583,-0.04084560251574115,0.048466022396568,9.86331666100185
8.507033583,-0.02524648785333646,-0.021018082288489285,9.860626086090493
8.517080583,-0.05656427759609273,-0.005950247373052597,9.904516632418085
8.527126583,0.06315553049593133,-0.045143641563557824,9.783814988590315
8.537172583,-0.014796479283224355,0.024173624406910735,9.829887973115818
8.547218583,-0.02910898271859282,0.032687827170439374,9.862730693199245
8.557264583,-0.01776274571744206,0.0674281632951513,9.862032751773022
8.567311583,-0.02181200784588743,0.08784200252398826,9.865428962540957
8.577357583,-0.021628658496390167,0.09290701942555168,9.850754309621886
8.587403583,-0.02582631813689735,0.06644201376898624,9.851836034667071
8.597449583,-0.019156851508786547,0.029375159232893848,9.816787341312514
8.607495583,-0.027437588104775833,0.00971190944455679,9.811777253221868
8.617542583,-0.03440887878685869,0.01635555836184762,9.805983198767406
8.627588583,-0.025329944813086112,-0.011399866383304796,9.802865382250049
8.637634583,-0.014077613563308805,-0.010540739387515301,9.791796951648267
8.647680583,-0.03948186591736881,0.025512513100184302,9.810465682643366
8.657726583,-0.09506419476318269,0.050720671097429525,9.818987312198827
8.667773583,-0.09775357400873697,0.096954892633777,9.814826713953568
8.677819583,-0.09302093329893732,0.0832297127482138,9.82506136563137
8.687865583,-0.11231607224475934,0.08770770738717229,9.815210125986251
8.697911583,-0.10865513661693822,0.07799404644794077,9.804953980265674
8.707957583,-0.11087409526030013,0.05845675721913769,9.811247840841622
8.718004583,-0.07465942554283583,0.0201346127765253,9.79848229869247
8.728050583,-0.05920184381912061,0.020346144228480443,9.808084309972475
8.738096583,-0.05486206059904815,0.0709008104161979,9.81998174590894
8.748142583,-0.039178716138968527,0.045587360800221736,9.823065357161568
8.758188583,-0.019720271772988587,0.01667719564818282,9.838577657670355
8.768235583,-0.02911290232782512,0.03618121455066982,9.842186930666244
8.778281583,-0.009692607940389985,0.0189381115670074,9.832383736594936
8.788327583,-0.012295553694876164,0.0051892778150066125,9.844818291408243
8.798373583,-0.027667560383602914,-0.01076134951138379,9.844481663769741
8.808419583,-0.020498232432128737,-0.013254876808800057,9.856868773055538
8.818466583,-0.012205347201886435,-0.045832465633409675,9.8739054279995
8.828512583,-0.019856060715229513,-0.025114250161399055,9.889749826010796
8.838558583,-0.020014064427128705,-0.02290567111473009,9.879027246060133
8.848604583,-0.0068065996205228475,-0.049196654101360496,9.860200627292143
8.858650583,-0.031431537189307183,-0.016798616038172672,9.834132719111382
8.868697583,-0.007853023256651007,-0.018209914368926557,9.850151557050156
8.878743583,-0.00264358753097038,-0.02670482377428597,9.86142946046356
8.888789583,-0.012004955895975257,0.004543153964235416,9.84151284065457
8.898835583,-0.00065607213747254,0.0014347628508692535,9.831523051675545
8.908881583,0.011679646485073442,-0.005046807731725893,9.849847728711914
8.918928583,-0.01109627089128943,0.00957211557004455,9.841283784744919
8.928974583,-0.011782733078340492,0.009070004418023794,9.855066955902647
8.939020583,-0.018621600209948116,0.02927180904525495,9.846602680906523
8.949066583,-0.034620280139867496,0.018610331304217458,9.848196225079853
8.959112583,-0.05853242363253097,0.037826421730447354,9.840887881937453
8.969159583,-0.06231755543936402,0.030588024802890204,9.843442772397434
8.979205583,-0.0689693022715388,0.014277329742372903,9.82423087416344
8.989251583,-0.08476338664093593,0.052572587015640215,9.851422293000088
8.999297583,-0.08539837300232214,0.05442109582750905,9.847164764811982
9.009343583,-0.07114552596756525,0.05991688846768001,9.814076917564464
9.019390583,-0.09119765143378497,0.06358127244875203,9.824719062575134
9.029436583,-0.07765436024377817,0.057983614906356416,9.806349980292595
9.039482583,-0.04058452338375051,0.014417097355957186,9.824335495076227
9.049528583,-0.06357440369605157,0.054120433066949886,9.826111628334413
9.059574583,-0.060067488423318015,0.019177248475357355,9.801845618549667
9.069620583,-0.020648584595988034,0.0065790518986884325,9.773515902618156
9.079667583,-0.010265436855174913,0.030850117541342568,9.799465265124626
9.089713583,-0.03882462690906131,0.03177014341124657,9.810798784267897
9.099759583,-0.05288575491786642,0.04397977879269289,9.819793954866313
9.109805583,-0.04228872341154112,0.030785338461245856,9.862035282854128
9.119851583,-0.05534542265389295,0.015749478605505716,9.849959160639148
9.129898583,-0.06429584443858596,0.0445374898840737,9.822401181651728
9.139944583,-0.0510716219339717,0.03995561452638241,9.842058005111495
9.149990583,-0.05338229701032573,0.0022622358872241956,9.879136972134361
9.160036583,-0.054046157637076445,0.005616391655340061,9.856555635846167
9.170082583,-0.018504168052844546,0.052214198138031,9.826308538022953
9.180129583,-0.010484942225635408,-0.05411916765832737,9.850233696831495
9.190175583,-0.0226921226385891,0.024724811942378362,9.853772750403353
9.200221583,-0.018917455600825094,0.016759804399605567,9.81531610211159
9.210267583,-0.02932245999147124,-0.08643743826097997,9.885554681401098
9.220313583,0.033186883880831006,0.011026564418341166,9.810321281254705
9.230360583,-0.01985885858585057,-0.03315674819204118,9.85248542452907
9.240406583,-0.03688227900387991,0.0016929518439276969,9.874668338719978
9.250452583,-0.009625809256081438,0.03676133066620493,9.801410299971538
9.260498583,-0.04048306366769503,0.016765112986404474,9.853302311861633
9.270544583,-0.04705300533946603,0.053059016549339436,9.831766752693634
9.280591583,-0.03905153023524023,0.0425119324757506,9.831578306853432
9.290637583,-0.07194350886460477,0.03213724250137217,9.850236600421225
9.300683583,-0.06189657383594007,0.04325133014996165,9.843321201727013
9.310729583,-0.05425384561441263,0.014785010844096197,9.825136283835723
9.320775583,-0.03905186902624366,0.0010493268165179008,9.866601729291547
9.330822583,-0.04612469843226659,-0.012670200431400738,9.843254808185398
9.340868583,-0.05944982355004359,-0.004486742570123781,9.858011041873144
9.350914583,-0.023729602674048635,0.014962046479614886,9.849405463762777
9.360960583,-0.018136125035651738,0.004049688169960898,9.861232873021695
9.371006583,-0.008668388627539719,0.014365058056619995,9.85988966862467
9.381053583,-0.017229423052625654,0.024814165322400255,9.848506139920557
9.391099583,-0.031121117211078558,0.03153602825415206,9.841012932066393
9.401145583,-0.047725632857730654,0.04183254196280606,9.815210439623005
9.411191583,-0.06805099155697805,0.06891905051626353,9.799703807689703
9.421237583,-0.07276077851450495,0.07125809235753422,9.787839920299154
9.431284583,-0.07484236720929416,0.07978100984474658,9.79484581950719
9.441330583,-0.07507421237424622,0.04152590526649134,9.834840002290028
9.451376583,-0.09614031347887658,0.046251607200684955,9.824959702782126
9.461422583,-0.11484897770425073,0.02007727187335816,9.800919178088071
9.47146825,-0.08093716795760694,0.022906676871705958,9.794966992612931
9.48151425,-0.08446876444521181,0.046051523160653966,9.803828999034511
9.49156125,-0.06964364625053905,0.02636249739668946,9.832248699804047
9.50160725,-0.07334798701983748,-0.0015308304662103114,9.807391579837885
9.51165325,-0.07923010721135337,0.007925865053072948,9.82173135889286
9.52169925,-0.03007321723101362,-0.01342250662041702,9.83827515158654
9.53174525,0.006369735310681023,-0.03827714142299799,9.855203308252719
9.54179225,-0.0005886672406849655,0.030320655598989693,9.831287324004144
9.55183825,-0.019522516922459668,0.03681676677588952,9.85915599279448
9.56188425,0.022116150021769625,-0.02775318024298688,9.906788872796538
9.57193025,-0.015935605051152813,-0.018477812720580775,9.80666677886096
9.58197625,0.0017577401882609668,0.03308802109287889,9.805511840344758
9.59202325,0.006362909227673758,0.03351710119314999,9.883894651657704
9.60206925,-0.009093364308676145,-0.02131171264884508,9.890255579286565
9.61211525,-0.01812055773329472,-0.013252373917297562,9.86113261599597
9.62216125,-0.024080447803892204,-0.0003341019024726863,9.809332322084737
9.63220725,-0.013701855167892865,-0.029904458968082,9.844172374296605
9.64225425,-0.030795875107494607,0.02097110101723897,9.8382116134354
9.65230025,-0.03875969657001032,0.019036814830762236,9.838607949582357
9.66234625,-0.028200725053611653,0.005908359756620038,9.864162018530878
9.67239225,-0.05425103495102451,0.0482330685820285,9.821160484178073
9.68243825,-0.051188214094577245,0.038818284416760954,9.815865503780802
9.69248525,-0.047441391950389857,0.026498363301178336,9.852861887511754
9.70253125,-0.05805424414811784,0.0317485086186368,9.805050369480545
9.71257725,-0.08200563963298257,0.05147714564840534,9.800501898728518
9.72262325,-0.07329645968865534,0.045118051111070964,9.820077242173312
9.73266925,-0.050016981126922364,0.014140681164412885,9.820503110420404
9.74271625,0.04920347697429151,-0.058209154454782926,9.924495528690333
9.75276225,-0.17144385765709574,0.10781538621615368,9.715758722182564
9.76280825,0.09097158943828719,-0.05043446596858636,9.780231160239648
9.77285425,-0.020330972121065813,0.03879298818313512,9.94550535890194
9.78290025,-0.13355768410421287,0.10586759938462274,9.784808564696684
9.79294625,-0.02117539360112918,0.011432174581817419,9.774222135971735
9.80299325,-0.06458029343062674,0.01002671554091568,9.91115639539438
9.81303925,-0.15541538978546166,0.026711818456567542,9.864015835047894
9.82308525,-0.019804707422059333,-0.009722950127588306,9.788059169093318
9.83313125,-0.05244222886934793,0.03913847961095046,9.87116329016241
9.84317725,-0.09809915312099568,0.03354828712134021,9.832397646413545
9.85322425,-0.05068158298146626,0.04057791042628975,9.755858706930372
9.86327025,-0.04281859377066098,0.04242266691252976,9.860465418691627
9.87331625,-0.023643610275846223,0.051426968124022754,9.867185441669623
9.88336225,-0.032618522842551775,0.05036256531881005,9.795970002642214
9.89340825,-0.03761975960782895,-0.011056055474203179,9.868867147758053
9.90345525,-0.023149083701683178,0.007080916868717792,9.865573008445816
9.91350125,-0.07830169434275276,0.026450750493137356,9.806908777455696
9.92354725,-0.1279138993855403,-0.0859116966894064,9.833753158460532
9.93359325,0.047567689884090034,-0.07138318257324036,9.984849741508462
9.94363925,-0.17567287571271403,-0.037637363033495574,9.765283326143932
9.95368625,0.07416499595314587,-0.04923122718136782,9.721300049446178
9.96373225,-0.0033143516528104607,0.05303288215907815,9.758033300245096
9.97377825,0.027657090012387257,0.018228682099051298,9.918803433176382
9.98382425,-0.12735990166200706,0.02409103278766899,9.997868873166949
9.99387025,-0.06196188532649826,0.10219098716929408,9.678289798102774
10.00391725,-0.04483492367344426,0.03580150315617115,9.736518417704696
10.01396325,-0.08983748482502348,-0.0969126329386884,10.03777165899362
10.02400925,0.014338220101725372,0.15171267315975612,9.800098460532242
10.03405525,-0.04469039084467495,0.06044624574313727,9.771057851666354
10.04410125,0.014303154734201518,-0.13149316433211916,9.934712046920248
10.05414725,-0.2073945948949994,0.1812501249772583,9.601093050544911
10.06419425,0.006353721204303883,-0.07074315216499835,9.947338746748368
10.07424025,-0.05681702883700183,0.03995161800273047,9.93122172242191
10.08428625,-0.08211443527382589,0.06809084391827176,9.571427506470334
10.09433225,-0.04720946369810915,-0.002967216625273699,9.87347286572686
10.10437825,-0.05566153025401867,0.05505218008618778,9.864897569817671
10.11442525,-0.0727252569107007,0.02903342672310115,9.859290810665726
10.12447125,-0.029237554652655758,0.03943808424211981,9.814064370085624
10.13451725,0.030467451553332553,0.07634891995133375,9.757002633272373
10.14456325,-0.04410746241146506,0.0505054016519913,9.886825344379071
10.15460925,-0.05181080319716051,0.04958814606256699,9.818620264409153
10.16465625,-0.0445068007577012,0.010874517722825527,9.807317485826088
10.17470225,-0.006670696592827149,0.04443420358640675,9.893741312097724
10.18474825,-0.0685082132982559,0.03178269458816713,9.87003489361167
10.19479425,-0.07689003060060104,-0.05958125118872738,9.78730679659123
10.20484025,0.04783681911531602,-0.030239599093835078,9.837752421692404
10.21488725,-0.05897230197337937,0.04033095456710538,9.929942135931949
10.22493325,-0.015914001102850194,0.08152097535781616,9.814216723034969
10.23497925,0.1256839539313427,0.1293041503986824,9.730836350838725
10.24502525,0.006565471848580677,0.10269704760465709,9.709571916319494
10.25507125,0.03562071051442199,0.08286084826877019,9.962680398331806
10.26511725,-0.015471650352447908,0.13967975065031002,9.913824388153746
10.27516425,0.07141100770693377,0.09117477913580938,9.80777837012939
10.28521025,0.09613814171647038,0.09370373915568557,9.875707304699107
10.29525625,0.12032919749322388,0.19253895336117838,9.804849003078832
10.30530225,0.10916367171637291,0.20016585709981669,9.836589400395306
10.31534825,0.19460517891164578,0.21324515719387552,9.851628632843202
10.32539525,0.28012164149314284,0.32039490409817645,9.762448782525638
10.33544125,0.2888478610086487,0.348497564048177,9.803921510662594
10.34548725,0.3340166384188833,0.42643683171680813,9.829485142969125
10.35553325,0.3729486960331551,0.5083144154941744,9.79536082695502
10.36557925,0.385997902830856,0.48639383240603123,9.926287172962766
10.37562625,0.4130452175331324,0.5840958253956009,9.87744894981139
10.38567225,0.4849061169042772,0.5950735419737857,9.802145553973157
10.39571825,0.5338723322498741,0.6190457026727837,9.81487958810302
10.40576425,0.6181508091393705,0.6729981124597413,9.864345579651928
10.41581025,0.6250711772336474,0.726283144561494,9.882276278157919
10.42585625,0.5936771350413255,0.7629461215593731,9.793559931894336
10.43590325,0.6130944233940655,0.7317496999406851,9.83533025900558
10.44594925,0.593068308333175,0.7103492668148018,9.938826404184473
10.45599525,0.5731340195947516,0.7202433241669866,9.857418345902857
10.46604125,0.5769443256901307,0.6732498887480044,9.79781583105458
10.47608746,0.5552061032580425,0.6566771882796789,9.86229285534528
10.48613446,0.5228348619050801,0.6336015021679926,9.861189597805039
10.49618046,0.4978567504128798,0.5919556420756203,9.789455361981762
10.50622646,0.4901270993804829,0.5266593282085306,9.774336192657614
10.51627246,0.5161168796285392,0.5820637407890167,9.83570285126202
10.52631846,0.5157560828614263,0.6240521700106694,9.8596957871148
10.53636546,0.5344994016868576,0.6368723477734872,9.845744679538855
10.54641146,0.6119706330801844,0.6874182209265879,9.865442892324948
10.55645746,0.730484022452421,0.7475182391477224,9.769244518685417
10.56650346,0.7015037925703135,0.8209183384733398,9.864624251611462
10.57654946,0.7419363378590347,0.8415748915215491,9.833027657321685
10.58659646,0.8480968319649086,0.9485441768276685,9.826013424349442
10.59664246,0.8458745014905285,1.007264169448485,9.835234112452477
10.60668846,0.8876338765923116,1.0614912056563897,9.871205745279095
10.61673446,0.9182864070816936,1.0839937123302403,9.82558148237042
10.62678046,0.945402548059686,1.0739161287865957,9.845449246685915
10.63682646,0.9807629434696111,1.1074270128444768,9.884509408969345
10.64687346,0.956179192911023,1.121909948610291,9.868807800136837
10.65691946,0.9549320112054598,1.097455476207788,9.83712982458716
10.66696546,0.9616846811245267,1.066730177516584,9.825273175533763
10.67701146,0.9421714724109281,1.0861631131280751,9.832190995624156
10.68705746,0.925225504763601,1.0930909050100897,9.789236698257167
10.69710446,0.8828558314630501,1.013135604471773,9.802772765957958
10.70715046,0.8876132728476709,1.0216526253629796,9.847908606305802
10.71719646,0.9051013736908966,1.0810006847054119,9.813647879407734
10.72724246,0.863743704250596,1.0164788682591728,9.746620250607148
10.73728846,0.8622972441545779,1.0157122514492822,9.812897174852552
10.74733546,0.808273151371049,1.0364666977679489,9.848663609494828
10.75738146,0.8200773040343169,1.004028673762617,9.825870601954545
10.76742746,0.828617293629785,0.9786845091571484,9.806228615833948
10.77747346,0.8237673034286171,0.9881151370939951,9.801523039393459
10.78751946,0.8350368604662329,1.0275424696864244,9.808076017533235
10.79756546,0.8124096979270977,1.0124404171397803,9.815555742863948
10.80761246,0.8267631494894653,0.98114204367843,9.842666436272696
10.81765846,0.8319129086537461,0.9696806621527099,9.834678063604011
10.82770446,0.7939814116219773,0.9133997030365629,9.872124150860142
10.83775046,0.77092338695262,0.9129411717034752,9.8612231695399
10.84779646,0.7740356595131512,0.9143834850864256,9.781331090677018
10.85784346,0.8101247223612735,0.8873740300812365,9.787479193448554
10.86788946,0.7733463249936825,0.8807799557897645,9.92087472055331
10.87793546,0.7865750260053366,0.8529041467991385,9.899665475636901
10.88798146,0.7484396047890206,0.8173803248789637,9.793913694922665
10.89802746,0.7451452841830049,0.7619507885441242,9.876069100853186
10.90807446,0.7503367957054042,0.8269441826118205,9.924670725277107
10.91812046,0.7092895467100805,0.7798347517178291,9.906088822780298
10.92816646,0.7106284078551327,0.7637432636258499,9.861042413094623
10.93821246,0.7003270399739125,0.8266413370165933,9.791056397269694
10.94825846,0.7576729650312602,0.8400558619027021,9.832708817964528
10.95830446,0.7246697321298775,0.8009302592583263,9.883132484412176
10.96835146,0.6731930800241798,0.7568544592309787,9.819298843090587
10.97839746,0.6889898951487887,0.7839326636297899,9.723866980446177
10.98844346,0.6764546911732544,0.8293953581147991,9.832438876109892
10.99848946,0.6775009093351066,0.7615812143738855,9.92928957232698
11.00853546,0.664161131196389,0.7259465994619906,9.909716531184882
11.01858246,0.6665769751867743,0.7996881475896118,9.808956865252151
11.02862846,0.6718210113906264,0.7726008777906989,9.773893650749129
11.03867446,0.5656311794895986,0.7393911447708671,9.851107975498518
11.04872046,0.5984255141346565,0.7686440690696801,9.837645034767196
11.05876646,0.6479792827604828,0.8105157304314204,9.798358596883586
11.06881346,0.549522585852555,0.8492151038515349,9.719011900476078
11.07885946,0.5928930071847488,0.8272791486118477,9.69331245073963
11.08890546,0.7047112469136235,0.8137422752333343,9.835744336682552
11.09895146,0.6169372675159971,0.8937189107692304,9.937804947423501
11.10899746,0.6500041024893259,0.8818129888918665,9.93899500787132
11.11904346,0.695010264941183,0.840106143862329,9.866729472375157
11.12909046,0.7078599045794792,0.7769130332563343,9.821987650798116
11.13913646,0.646209030052453,0.7739328085665216,9.729152353647777
11.14918246,0.6417905419705181,0.7594575749875634,9.857377225290735
11.15922846,0.657025025186299,0.7514774681151564,9.905727222938355
11.16927446,0.6482332416575811,0.7195879163220137,9.839707356183542
11.17932146,0.6402453319269052,0.6798709515677099,9.830577108097586
11.18936746,0.6747322906012126,0.7608444949198349,9.787817900916671
11.19941346,0.671609891989585,0.781684620459555,9.836567503863382
11.20945946,0.6285164419770259,0.7309905882116454,9.787233510213264
11.21950546,0.6997769001992242,0.7676531690541504,9.749491866184016
11.22955146,0.606259161669525,0.7836088928512787,9.858414708103194
11.23959846,0.6898025459860551,0.8088070992221594,9.91348308141125
11.24964446,0.7241399316464138,0.9012847723240576,9.904193389360334
11.25969046,0.5906991717189106,0.7293157870459733,9.848242450976496
11.26973646,0.5599489404600217,0.6680353091381839,9.817201237257354
11.27978246,0.6025396628747136,0.842319788741572,9.825479966353784
11.28982946,0.6371804656263886,0.8566693798391839,9.847109720372014
11.29987546,0.623629781391059,0.7055404727621879,9.902621773240044
11.30992146,0.6079173606678931,0.6974344292064777,9.658117397410683
11.31996746,0.6292595918433117,0.812224989047977,9.593258415588359
11.33001346,0.6822180785958588,0.7792791241094336,9.840069016840589
11.34005946,0.715364854859967,0.7770203015691296,9.944166956889458
11.35010646,0.6353378311257554,0.8074509060305167,9.837159766072466
11.36015246,0.6519433877153759,0.938083648951705,9.67889345962085
11.37019846,0.7677134783446092,0.897943745157857,9.792613605162167
11.38024446,0.624672000304847,0.7107921191356197,9.990109218688223
11.39029046,0.5012436829444709,0.6492039265632974,9.935418064984562
11.40033746,0.49337877235947375,0.7302422151420248,9.720833348098703
11.41038346,0.8466641274290388,1.029870595055975,9.978152929020782
11.42042946,0.9623854447480329,1.028048528275268,9.984279712812967
11.43047546,0.3314289826432149,0.4644754725926286,9.478919623523874
11.44052146,0.32745932815134693,0.4737161411265906,9.255869627882694
11.45056746,1.1939229384544996,1.7126989534515,10.134799239127767
11.46061446,0.6164996615000659,0.7384012937870846,10.314620665128594
11.47066046,0.6949857749691537,0.027026437201035723,10.454098451336526
11.48070596,0.40948159389375943,1.1010996116972218,9.071572142891727
11.49075196,0.9559808541747681,1.5621233249851345,9.301839453854207
11.50079796,1.382150600523692,0.6443832320505468,10.917795144423334
11.51084496,1.095277893911286,0.8514254585270189,10.465931332737863
11.52089096,0.19178251522289502,1.2867568958013846,9.409873318487078
11.53093696,0.00459225270669233,-0.018284516477642145,8.931497092528318
11.54098296,-0.11431539815393997,-0.27901041901991136,9.659454875947196
11.55102896,-0.5308852509950927,0.11268208373598028,9.09118053123638
11.56107496,0.16570221166846671,-0.04887604838474929,9.464718013778276
11.57112196,-0.15366997216166964,-0.3119447184370826,10.75940401510045
11.58116796,-0.04717600102428172,0.8500589333285863,10.290397508857279
11.59121396,0.5081718388545009,1.2718191139542352,9.566829634045854
11.60125996,0.8970094214760017,0.4156543841583527,10.138458651536908
11.61130596,0.46274323192605205,0.5119276908060939,10.107669855142131
11.62135296,-0.22914243444302898,0.7080513778024308,9.41137997328822
11.63139896,0.4942600163353775,0.3534291782864899,9.418933534432858
11.64144496,0.8561762113507235,0.3614130068036452,9.473845355119972
11.65149096,0.6874411426901982,0.34003723494459687,9.976249730897552
11.66153696,0.34945874829701834,0.49702595328974997,10.498679619840209
11.67158296,0.32168069763051876,0.7550869914269804,9.958772075943799
11.68162996,0.4606117721108238,0.6066857208378971,9.408030647397604
11.69167596,0.7201756580682376,0.4161459228313072,9.690013832432008
11.70172196,0.7770506934453616,0.8579673350486565,10.142421316451
11.71176796,0.34282594417072615,1.0377074403798978,9.881003340430592
11.72181396,0.40839572125915025,0.5251615123985566,9.67888320762033
11.73186096,0.6310994509757183,0.554947216912205,9.728821778534881
11.74190696,0.6296863181561994,0.6859890919099244,9.77681943664251
11.75195296,0.5161509190217575,0.3797331665792203,9.813756756321254
11.76199896,0.4204673875175829,0.5520400592984211,9.839431183890952
11.77204496,0.3928291415864009,0.7321601011405835,9.953355196223082
11.78209096,0.7100418934792954,0.6572757122999008,10.06253696718962
11.79213796,0.7350747950139703,0.7540891621454439,9.845854708694615
11.80218396,0.711672514349978,0.868993554472451,9.656352550827496
11.81222996,0.5366376257977377,0.7582789795769922,9.405013468324224
11.82227596,0.5231479349352908,0.6083120232758794,9.662658400687516
11.83232196,0.527527578077552,0.7871011046968862,10.121732973267731
11.84236896,0.6074407894927459,0.7655276651595032,10.01188930205716
11.85241496,0.7137130977937693,0.6028784603339218,9.848776446404115
11.86246096,0.5540813495136954,0.855584671927153,9.626356751517097
11.87250696,0.28969622605968914,0.7954536559684492,9.98333458263477
11.88255296,-0.051196891136343785,0.22772447062759762,10.878862404895612
11.89259896,0.5084306114312016,0.4804844423172195,10.118142726200713
11.90264596,0.7420411663605028,0.8456692767948393,8.842289772087279
11.91269196,0.7902946800622987,0.747400192272413,9.111147599497382
11.92273796,0.8717739500489414,1.206094669904686,9.505799883583355
11.93278396,0.7514409976589627,1.0392225111356181,10.016909098026876
11.94282996,0.6381067623371507,0.5420331553015053,10.576498938597503
11.95287596,0.6377255215011399,0.7829722428001966,9.877831234430536
11.96292296,0.46916572103134196,0.5312753631507532,9.692124680922117
11.97296896,0.5117275455603609,0.4758164724268938,9.57042503471633
11.98301496,0.7059680311599232,0.7919221280279515,9.479274433348063
11.99306096,0.6682540352652242,0.6101281026303541,10.021164436474837
12.00310696,0.8402880592455287,0.7920835247494512,10.00427152834072
12.01315396,0.7434036692100511,1.1884502780960244,9.634871874288192
12.02319996,0.5758591683197162,0.8232273468934195,9.592283232949137
12.03324596,0.7919186690288839,0.38171827248925905,9.76506379462421
12.04329196,0.5679555646399349,0.8756395395537567,10.018881930034429
12.05333796,0.4319522064254478,0.8045907056277486,10.354685960001206
12.06338396,0.5433189671654647,0.4301966070498539,9.87016395613682
12.07343096,0.37359388077524847,0.2569160188815266,9.13083042413978
12.08347696,0.27424704373130715,0.35580792504797887,9.286231979411566
12.09352296,0.08927596780791149,0.29352315951390806,9.821916465693217
12.10356896,-0.2659134963341416,-0.23245407921803343,9.771061438226159
12.11361496,-0.09659215345514699,-0.17471719841589536,9.676389973060244
12.12366096,0.0017360356228965854,0.2242273376984502,9.322799915654961
12.13370796,0.07984480376459258,0.08157790341611228,9.80944302775565
12.14375396,-0.22122172425094927,-0.2506518093963661,10.98331387936614
12.15379996,-0.6775472269491681,-0.15072555841501717,10.411770088247279
12.16384596,0.1954966836308802,-0.1857115410445339,9.35366514750418
12.17389196,0.6058206054843847,0.24434651558003742,9.204159137375376
12.18393896,0.43930293039837587,0.5663955994070171,9.241456628446173
12.19398496,0.36833916360474006,0.2014496607200993,9.773053296551247
12.20403096,0.02030440225324475,0.17242672743818824,9.969803783787652
12.21407696,-0.13621556294353224,0.02109715796697361,9.686750800435641
12.22412296,0.13673987236089566,-0.4658221567570389,10.062645129628294
12.23416896,0.07827839126763059,-0.03403939118806256,9.635707096909517
12.24421596,0.2333339650905438,0.0903736421044675,9.811037092535182
12.25426196,0.31329193168007874,-0.008843580921226392,10.762108759857234
12.26430796,-0.007783949280037114,0.24769054570581003,10.270625339634895
12.27435396,0.19337028772805095,-0.06026587987143076,9.190895605229104
12.28439996,0.39846036583730365,-0.12390877568500355,9.075694526796031
12.29444596,0.18696336571803882,-0.047937591192658356,9.445771832179629
12.30449296,0.29009605773479713,0.16097556107610278,9.791410856423198
12.31453896,0.22757307594134976,0.4472233364760488,9.872652850165464
12.32458496,0.05400604338155745,-0.0588620045810504,10.077525314620631
12.33463096,0.08572082509339174,-0.17388023086865778,9.98842587006093
12.34467696,-0.0498315619885225,0.08604671276602917,9.72662658743194
12.35472396,0.05428419375050327,-0.03436307351679912,9.81875375341335
12.36476996,0.45213638773570447,0.2923929290636651,9.466251446932944
12.37481596,0.36000271002890316,0.5573693792589162,9.283262112270043
12.38486196,0.31751622939005614,0.1737670716862154,9.64909305870418
12.39490796,0.3473787602680086,0.09176716815718604,9.55356840997108
12.40495396,0.013570488276279484,0.1068543108558223,9.531098568157354
12.41500096,0.13535955671749317,-0.2714353909873649,10.104722366584094
12.42504696,0.5117630125355065,0.02524356871277411,9.967647367117637
12.43509296,0.3909563203142646,0.4439765318307075,9.569002258973649
12.44513896,0.3294283034228466,0.12709153910312976,9.730810278456111
12.45518496,0.5073558899606921,0.1910845561751921,9.434008378366153
12.46523096,0.37987408025068525,0.28826407291132083,9.382586148846235
12.47527833,0.20079493695839043,0.04834331013348948,9.786759950277336
12.48532433,0.36617487831425893,0.06355703600328692,9.761617478844432
12.49537033,0.5100836122862457,0.21126377820606485,9.882501712557639
12.50541633,0.5062884291133878,0.2692553710555975,10.014526749747048
12.51546233,0.3968473797667467,0.08578995657784037,9.75358558075679
12.52550833,0.41744640255883997,-0.10603980418022337,9.627708443171239
12.53555533,0.5579876716859465,0.09038442608146692,9.61065541900562
12.54560133,0.5713894085404988,0.15726613574856582,9.648453606378746
12.55564733,0.6214394648776987,0.06340488927859361,9.553942314724495
12.56569333,0.664649836837498,0.07565295218958701,9.253682214479136
12.57573933,0.5998799153292881,-0.046845868388132,9.64192572183512
12.58578633,0.5538952371967343,-0.06239412166707783,10.170602965173071
12.59583233,0.5399022823451333,0.14342376509196078,10.175274300192223
12.60587833,0.2340654200689598,0.04438570326039123,10.226744322387711
12.61592433,0.3532648838811958,0.011478684985015235,9.83881468861296
12.62597033,0.5747998143366834,0.27444969909954287,9.656534640673593
12.63601633,0.49595811878112767,0.4078882776391499,10.518285523966519
12.64606333,0.3341466318563645,0.6502997719342707,9.419963991931033
12.65610933,-0.05390232581763956,-0.1852242998212549,8.569345732372511
12.66615533,0.21389595095689012,-0.6693008404748761,9.120733647656975
12.67620133,0.8652960710940691,0.0936856298252379,9.051893247863793
12.68624733,0.6085515121909731,0.23098289486882023,9.71510221567638
12.69629333,0.613245756917883,0.2987340500358814,10.14752982766062
12.70634033,1.0142405556614373,0.25727980081508617,9.599820647074656
12.71638633,0.697570519621252,-0.01211629531179161,9.80552521675203
12.72643233,0.7371535857869408,-0.07965804175413065,9.993419176897818
12.73647833,0.9281993661781267,0.07927571457730313,9.531658032754173
12.74652433,0.9360073228512102,0.19476359806099577,9.446691289650142
12.75657033,1.0071328477386512,0.12437647952202138,9.913717287089236
12.76661733,0.9080456385706398,0.025784477812481145,9.8662264345061
12.77666333,0.845662005937318,0.09181468618708195,9.603463738369399
12.78670933,0.7471270033455926,-0.0011853242897234492,9.770846620701949
12.79675533,0.6418359384442205,0.2029797349369181,9.813995779076166
12.80680133,0.7193664699321323,0.07140936777119848,9.43515272719328
12.81684733,0.6246166245636493,-0.22963165479114916,9.28188983227068
12.82689433,0.7878778732946009,-0.034798534194403874,9.202209562023322
12.83694033,1.0167244899434402,0.16225914142756867,9.611003841948627
12.84698633,0.6839423192758513,0.13613556304962648,9.903612738790233
12.85703233,0.8017736227897733,-0.09821681992640564,9.463482471450222
12.86707833,1.3068707583913115,0.13759700277509118,9.513261691239489
12.87712433,1.9059735071796942,1.1203983385806437,10.363052675653794
12.88717133,0.5221983209336336,1.1618656408129833,9.943766193582958
12.89721733,0.9486459163763716,-0.042263414391908824,9.489524300959712
12.90726333,0.4868234190884168,-0.23820791132607788,8.575080052505779
12.91730933,0.23213785687021757,-0.6007978673552377,8.919506361661725
12.92735533,0.8849697083339567,-0.6437071008586999,9.8434645152235
12.93740133,1.1116544147534606,0.27049162367016366,9.637808444782584
12.94744833,0.7866720916773723,0.3635425925041995,9.749021449993561
12.95749433,1.1337776838972295,-0.1606122544383563,9.546367815309548
12.96754033,1.4176750590063083,0.008609354100405286,9.10804067206454
12.97758633,1.0159415593182621,0.18998944917507954,9.579017842290314
12.98763233,1.0481766990421921,-0.0006369777862277149,9.935554173146468
12.99767833,1.2303491814372953,0.02200212718282146,9.812130990202235
13.00772533,1.2225211645274432,0.22298790028240642,9.665127386810562
13.01777133,1.113844995187945,-0.11129423447953309,9.555015345551757
13.02781733,1.041532930607065,-0.2663835820106266,9.163056117044649
13.03786333,1.067747083283645,-0.13165641602070716,9.202160700686708
13.04790933,1.2529889595989907,-0.14708846060890401,9.510886118942068
13.05795533,1.4059292207142915,-0.0639376092864478,9.732012695318456
13.06800233,1.3639051714539365,0.1461716172886921,10.020136807007406
13.07804833,1.2590510133484532,0.0006035639318060418,9.957663977755267
13.08809433,1.2190401356786273,-0.25272440599158325,9.534280005260136
13.09814033,1.116988455831497,-0.202389372010374,8.975395062388566
13.10818633,1.091321137797681,-0.1750558858462768,8.812825147501673
13.11823233,1.0050066651911003,-0.07762020295773729,8.990371014429533
13.12827933,1.1771306553191407,0.12026798911222208,9.583111236856688
13.13832533,0.8295551456706618,0.03719529383431277,10.078810955050782
13.14837133,0.6202494814311589,-0.24069307137047288,9.531103050573064
13.15841733,1.1226781000963935,-0.33598440308891525,9.038093878488539
13.16846333,1.3691550182108239,-0.05254722100175213,9.092504966742316
13.17850933,1.460567427977893,-0.011953401651835541,9.266191621651682
13.18855633,1.3252006371707175,-0.17462941876729157,9.569555565556161
13.19860233,1.3548004064035637,-0.38625705883809625,9.845297721649757
13.20864833,1.5988669093894292,-0.4945088137060392,9.72534622034008
13.21869433,1.5723932137048227,-0.15569767155624223,9.479724997202796
13.22874033,1.513681678268333,-0.24574704393889674,9.587252408756916
13.23878633,1.7457596367315877,-0.4748368280515856,9.578743004254024
13.24883333,1.3125288385847824,-0.3045103865287457,9.138831630163146
13.25887933,1.2805287556318483,-0.5645598630033405,9.219675402450868
13.26892533,1.659608348190904,-0.8142517303684426,9.528858108902812
13.27897133,1.6637128854205245,-0.6888697583451985,9.7046331661041
13.28901733,1.4701638363676452,-0.510272773971727,9.778456944584303
13.29906333,1.5840634848254809,0.13737995511994278,9.700300054700989
13.30910933,2.2007582506854537,-0.8069236739044443,8.775170782971976
13.31915633,1.2466573595406771,-0.5238991684761849,9.402334957936569
13.32920233,1.2055984038530845,-0.8290801845213467,9.728346228996191
13.33924833,1.245275015566724,-0.6055754818118833,9.247910988566094
13.34929433,1.5327781363772197,-0.6723152903882439,9.264987722984147
13.35934033,1.7733368206714484,-0.4459062387375244,9.382160146467495
13.36938633,1.358057117948326,-0.39632007457769836,8.965459521331574
13.37943333,1.5499435669195143,-0.6846456397344833,8.84083648078233
13.38947933,1.9306521955098626,-0.7224470898116259,9.114683700843653
13.39952533,1.98987405395729,-0.9725359990860933,9.910250976529568
13.40957133,1.453963447345058,-0.7840690410744166,9.998790598407215
13.41961733,1.5438094404729468,-0.5382772400634872,9.528223917175936
13.42966333,1.896261478350354,-1.554313708475422,9.385874788989565
13.43971033,1.690708195653404,-1.055475596360442,9.495019209490899
13.44975633,1.5191149755699411,-0.7549215188721718,8.92998077597945
13.45980233,1.6854251454773115,-1.0724475100347564,9.05707472717753
13.46984833,1.730663317993308,-0.8927382094075181,9.764683808643401
13.47989488,1.6736598633422208,-0.4595887314224267,9.3459115088807
13.48994088,1.5529626106257957,-0.5396537722282218,9.149118961775633
13.49998787,1.565860347858021,-0.8307244403239907,9.415051420969146
13.51003388,1.413518621382545,-0.6816363048430085,9.168080740935427
13.52007988,1.3652408730458867,-0.8263205171008596,8.942159684664118
13.53012588,1.741193428534716,-1.1351789602861524,9.09593632155451
13.54017188,2.0072022811662817,-1.324601424970951,9.354905661674806
13.55021788,1.8214102735103612,-1.3952648040047535,9.591469366295241
13.56026388,2.208278524443356,-1.7689501335417603,9.899603214010458
13.57031088,1.6953593189657281,-0.5141623703961251,10.001713293672694
13.58035688,1.6465260924637521,-0.23673935540994312,9.784714344398292
13.59040287,2.212452650558787,-3.085874798261712,9.546289118871774
13.60044887,2.1577550885249743,-1.8316762457582119,8.919139352306118
13.61049487,1.4169214986971594,-1.4002932698771902,9.64071762774328
13.62054088,1.631538115931685,-1.8037609910910557,9.841373427091433
13.63058788,1.868728178271547,-1.4830586927669092,8.938664718326045
13.64063388,1.467973444878264,-1.0055799302611839,9.122379325569296
13.65067988,1.3155891543446925,-1.1781199529889637,9.110830386405905
13.66072588,1.528583703592076,-1.528970996341907,9.094579366878751
13.67077188,1.6329184527241023,-1.4488808186181252,9.661865253805662
13.68081788,1.9349756043080575,-1.4975462932087071,9.72706301177456
13.69086487,2.118039337378151,-1.8711402905399313,9.807830850465216
13.70091087,1.6989487638953211,-1.9662254845960072,9.688278866120951
13.71095688,1.7589969719681602,-2.1021783630070594,10.08580369080375
13.72100288,1.888986594382022,-1.624157384075616,10.236224770073585
13.73104888,2.0526474239900128,-1.5263279268552887,9.592518470159987
13.74109488,1.6279005370439588,-2.3216382449074207,8.779702340032902
13.75114088,1.3960927832474892,-1.8017182010433717,8.975705451012564
13.76118788,1.451444686799836,-1.9539729791265767,9.626256356870353
13.77123388,1.6066720799903893,-1.6499241636164497,9.355736730318576
13.78127988,1.8848314128132093,-1.7705525144124394,9.843947012908016
13.79132588,1.6806483112032642,-1.8227363606636444,10.354772139780344
13.80137187,1.5784698637022052,-1.8502713465053968,9.137474274742468
13.81141787,0.7144182133347505,-2.1069967803285072,9.504666625419496
13.82146488,1.9021756548179392,-3.048140678460933,10.20345580223114
13.83151088,1.804065356438365,-2.0733049208967893,8.659795878382015
13.84155688,0.581540846658339,-2.0581928065455894,10.453913948291822
13.85160288,2.0312132488193044,-3.022885961182673,10.537102572002372
13.86164888,1.7285063454303018,-2.523045026258227,8.674750707922886
13.87169488,0.7816885571956589,-2.027121146439195,10.156198512874926
13.88174088,2.079226800044598,-2.755454523089058,10.134901253417167
13.89178788,1.6369676593964142,-1.7537800942393764,9.538609799910086
13.90183387,0.24256952606636606,-1.4562789207965425,10.076028617289413
13.91187987,1.4339161810156615,-2.4011031541845687,8.817935919790502
13.92192588,1.259830793950201,-1.9761500841595316,9.32455547478652
13.93197188,0.4561825866667862,-1.5941525707426956,8.829637052166152
13.94201788,1.0519011057470302,-2.0520701751436525,9.445561406661762
13.95206488,1.7884638101951333,-3.261535593041324,10.78775417944485
13.96211088,0.33989174715409753,-2.130473044227496,11.921030251114983
13.97215688,1.5114880790305456,-3.024821744069391,9.541634962107677
13.98220288,1.6824330808918833,-3.0307402435113318,8.593656077371763
13.99224888,0.6999615859976029,-1.6870019870039044,11.975187290308943
14.00229487,1.8337269304177115,-3.4626093075030098,9.07609059775398
14.01234188,1.2588099086708098,-2.5126224855301413,8.221375269981793
14.02238788,0.2432842277355961,-2.857410855740201,12.411897607887484
14.03243388,1.5681613096175273,-2.6384190494899182,9.076624379619005
14.04247988,-0.033008471972551995,-2.197228537602825,9.050654724787202
14.05252588,0.5387751776005597,-3.138373763447985,10.989157278699514
14.06257188,1.413992950814741,-1.9117935644904496,8.227448004662762
14.07261788,-0.03907224821150591,-3.2023234066404993,10.889056354410457
14.08266488,0.45706188220973676,-2.975997775221172,12.247161655992745
14.09271088,1.0413673535727122,-2.607155650536682,9.362336320152977
14.10275687,0.5738051720105216,-2.902521768995297,9.626982628469507
14.11280287,0.8075676024359861,-3.2457386753625657,10.664835348486134
14.12284888,0.670167988532539,-2.728907766171635,10.010301848461987
14.13289488,0.6498606559035767,-2.0474628720589467,9.437620372673917
14.14294088,0.21034248165282296,-2.5160272598794697,10.260507177078038
14.15298788,0.44565385298019233,-3.0375363351349773,11.558135305028555
14.16303388,0.3954261605729594,-2.44835960489826,10.799545529357772
14.17307988,-0.031232889940064377,-1.7923885523518877,9.728205112171986
14.18312588,1.3150650597103941,-2.7602700694981634,8.588400597164394
14.19317188,0.7014203575981339,-2.8360532530785227,10.140837907835856
14.20321787,-0.4616815409881797,-2.4435093789036695,12.188322066204217
14.21326487,0.680909867892723,-2.1942413935479466,8.987876956610547
14.22331088,0.746446841670005,-2.523171646045179,8.763651241598188
14.23335688,0.04326004798004608,-2.709863195585643,12.21100053101979
14.24340288,0.5960621376914778,-2.1765333918061627,10.10725963430152
14.25344888,0.5018752666439391,-1.478268959298451,8.508133325782143
14.26349488,0.21533453431876307,-2.1391466044355685,10.375202037393358
14.27354088,0.27020513645347766,-2.285387481526582,11.085856327847482
14.28358788,-0.21652627225453097,-2.282897251610384,10.398248127412476
14.29363388,-0.27493503668401936,-2.16044592816077,9.659069964695936
14.30367987,-0.19265870499475637,-2.64925865708628,10.527430497027723
14.31372587,-0.4938376201760529,-2.9160428320754965,11.130238184879968
14.32377188,0.46103108456367436,-3.2840301674229218,10.883669177041659
14.33381788,0.409051883575789,-2.495746696860611,10.237423826378574
14.34386388,-0.1852383946627732,-0.8760540276975962,9.418237324914159
14.35391088,-2.2682895301095467,0.5314083071162894,14.457523171666658
14.36395688,-0.4511710738546028,-5.0241204741929195,13.191915649827271
14.37400288,1.429039771023864,-1.168617162251591,2.1128810580350064
14.38404888,0.44300975869552794,-0.5433644059048282,6.786494083486016
14.39409488,1.1647504388236756,-2.7270007616283016,10.381860360284179
14.40414088,2.3202911693077795,-1.8060948036972784,9.516148669506691
14.41418687,-2.210108531737572,2.3330135033468253,12.707309529189516
14.42423388,-1.9374326817976766,0.14430222864394954,13.227670333160903
14.43427988,-0.4412940687920257,-2.2138190457208298,9.52774590674115
14.44432588,-1.8634524526307639,-1.003701787278783,10.007545724835758
14.45437188,-0.4421835247617091,-2.2280791604636274,9.764513163582285
14.46441788,0.45767630129661485,-2.3421570252147808,8.169193447093223
14.47446358,0.18357278275033215,-4.01275787221791,11.794915725855173
14.48451058,0.017216527064791317,1.9239167812071027,15.370642085346818
14.49455658,-2.747788401039645,3.0339024243849835,13.347234846131562
14.50460258,-2.0439077527777805,-5.226994785148881,5.837085039064962
14.51464858,2.9256585255387138,-3.017507913652374,4.914950036588154
14.52469458,-1.656359576648316,0.20367391281986952,10.44714790130944
14.53474058,-0.4803797498162185,-2.302275769315385,11.731523923912311
14.54478658,1.518947442006494,-1.8209857236889675,8.997341619559975
14.55483358,-1.831023949456649,-0.17271329027506185,12.913565418253867
14.56487958,-0.5847552103408382,0.4492315226624819,12.828497039753989
14.57492558,0.8406207905076234,-1.406574334794918,8.213145777989427
14.58497158,-1.8269471922585747,-1.0641199701161461,10.98555386130524
14.59501758,0.16957568680093885,-1.91812280601943,10.48314422983422
14.60506358,1.4225397615337778,-1.6708675614043043,6.592347249496864
14.61510958,-1.1426727113861268,-0.9283274876801064,11.887049365252683
14.62515658,-0.9686332972633451,-0.11286760337469046,13.02226599690302
14.63520258,-1.2274690049295809,-0.36806497877664235,10.078946936907077
14.64524858,-2.66773254708253,-1.0952482345541377,11.764836696371473
14.65529458,-0.3401004274097003,-1.8983621307469973,9.51892591865982
14.66534058,0.36762042752322716,-1.325294107173446,7.107074222629065
14.67538658,-1.2795794552491584,-0.5046952645442496,11.428481663780898
14.68543258,0.24096808978162182,-0.9644331407134132,10.479100201418929
14.69547958,-0.38129300978914693,-0.26688937123256745,9.942911114044716
14.70552558,-1.3710190285194648,-0.4696242816439423,11.950581982522339
14.71557158,-0.1377956991032621,-0.6314679112965701,9.17663038712377
14.72561758,-0.5369436498400324,-1.0549824572568387,10.183726993858949
14.73566358,0.05361130590816803,-1.1284529133265324,13.372044882700674
14.74570958,3.0040864408833685,-1.330848984667645,10.061792097361682
14.75575558,1.0536494085258263,4.286880560353994,7.990159677593045
14.76580258,-2.434649008181361,0.980818664095374,11.195560530561355
14.77584858,0.14029462734505432,-0.31858222390593555,8.411854293924867
14.78589458,-1.369129988524143,-2.5079950349699285,8.982399249580956
14.79594058,-0.8233944026175327,-2.711429743402518,12.447981157703545
14.80598658,2.03204595428646,-1.5714878763761282,8.205492846547566
14.81603258,0.9308365110856516,0.9003632106717836,9.14959312256437
14.82607858,0.9923197108844733,2.2106472438370393,12.185391333264212
14.83612558,0.38568107706346944,2.2279084562872336,9.167504614829408
14.84617158,-1.6770213555287752,0.6165030800356671,8.837482964189752
14.85621758,0.9903892117342322,-6.493391201382332,13.60257101067187
14.86626358,2.2114082915239996,0.6906362130690133,9.547662267329551
14.87630958,-0.8030398107974783,1.8502247365022686,9.750034356973792
14.88635558,-0.2676818575531375,2.870493313232062,11.624316808882778
14.89640158,-1.0033056894130152,2.7276422997702836,8.26340480852661
14.90644858,-1.1325728832217612,-0.9083135097707051,8.659233035391251
14.91649458,-0.5562054856728362,-4.1703465581611265,11.16868523122142
14.92654058,1.7513865702294749,-1.1706570040844984,7.940538110073411
14.93658658,0.06961226225284474,-0.7956778176786911,10.057159713173041
14.94663258,-1.075306572889933,1.976612090628799,12.145651936959162
14.95667858,0.14010977242943326,1.1440912247893125,9.371608174261683
14.96672458,0.5493988309371709,0.03520511489366759,9.550613166990917
14.97677158,-0.3192943081995968,0.32001408365634465,10.177829335078
14.98681758,0.4588345157638107,-0.5013579979010174,9.216950127150362
14.99686358,-0.12491184690157399,-0.8826584152351367,11.08317537378241
15.00690958,0.5543679629003299,0.3946202407896136,10.646240718045895
15.01695558,0.15757862381961962,1.5316165026506952,9.745527315501558
15.02700158,-0.7303330163404559,0.39652587571301323,10.989099266724384
15.03704758,0.45324654504661877,-0.0440960122777001,9.230207248827286
15.04709458,-0.38635097568835847,-0.03900116996486628,8.782607086439468
15.05714058,-0.33440411246965135,-0.5277476987020343,10.568268736711142
15.06718658,0.682577743090788,0.5743326017156021,9.195112923623105
15.07723258,-0.0694770966279514,0.009418260610367183,10.029079389745458
15.08727858,0.4195995449383901,0.1778697423319928,10.62486434993244
15.09732458,-0.20629670587469826,0.47950375556445946,9.846781520879258
15.10737058,-0.0729315520602882,-0.30184919888810874,10.34099140389521
15.11741658,1.390453996960692,-0.27734118861811957,9.594506662508426
15.12746358,1.08121939929272,-0.10014507857191587,9.71466644045216
15.13750958,0.9519496512768917,-0.01353646397096948,10.594194604740874
15.14755558,1.633422907036125,-0.21989577077958938,9.78124849238891
15.15760158,0.6072491594858795,-0.18751198247006357,10.34279242248667
15.16764758,0.3668276062581537,-0.562473202130574,10.687597486059753
15.17769358,0.9953696731889784,-0.7127568362042198,10.048325399438955
15.18773958,1.2532743819620062,-0.9048143876552529,10.742619095397378
15.19778658,1.7664453418430592,-1.0655097036051264,10.326649679040745
15.20783258,1.3510542784274728,-0.7020086376895435,10.378592129908291
15.21787858,0.9538586438445257,-1.094925969756685,10.559725987269744
15.22792458,1.604019912920545,-0.807476031538254,9.826544255007109
15.23797058,1.5774499811255922,-0.7191285017720646,10.135172058797306
15.24801658,1.496572176624931,-0.5765784003468216,10.141244304614357
15.25806258,1.7034473886890529,-0.8366125535105472,10.268586949891807
15.26810958,1.8591441200893044,-0.5827181165982646,9.893488581541344
15.27815558,2.0302615471152388,-0.6403218103048736,10.302226501338152
15.28820158,1.8237427589191344,-0.06676977527738097,10.512674131624257
15.29824758,2.0384200349194086,-0.6553248075176326,9.75420996360357
15.30829358,2.024282901870665,-0.828179428748914,9.467825573708659
15.31833958,2.4317699505982024,-1.0259222782654496,10.017056525431457
15.32838558,2.177144519385508,-0.3499107546588473,10.383902539279692
15.33843158,2.699971269221057,-1.0081318425516093,11.185938095860772
15.34847858,2.494182707647626,-0.7023146061257411,9.413796295250167
15.35852458,2.538740345615055,-0.7270087914999235,10.040569776605569
15.36857058,2.514430909280778,-0.9390282742888111,10.409975663937328
15.37861658,2.883909908037898,-1.4043348731343595,10.567546374580534
15.38866258,2.928146736785144,-1.4046602786131324,10.595000705716703
15.39870858,2.9792095960431704,-0.9523295947002793,9.818791779793576
15.40875458,2.537746358448064,-1.0523549114747186,10.430728009278155
15.41880158,3.0331369049371486,-1.1195461768617412,10.403057835297352
15.42884758,2.8172104972117866,-1.189235798794564,9.989696903645386
15.43889358,2.531735959161867,-0.845597873146683,10.27812548708994
15.44893958,3.114170057926342,-1.0265798893981828,10.254084051789112
15.45898558,3.7037471617969597,-1.464948560822874,9.82349364378702
15.46903158,3.8568121308251406,-1.2600805992897885,9.582225306176431
15.47907746,3.4003617665558523,-1.2705966530791588,10.597839182320591
15.48912446,3.87413849574059,-1.1364655218186823,10.287292297912531
15.49917046,4.24839328081489,-1.3206961140639615,9.521182243183567
15.50921646,4.115330406892872,-1.7834710696657363,10.538560816012216
15.51926246,4.516440904398729,-1.5625649842851679,10.693876783869705
15.52930846,4.835052638350607,-1.373649477899944,10.271763254921737
15.53935446,5.030012248144349,-1.6086319339978732,9.934135667288494
15.54940046,5.1975151676560705,-1.6626716940525177,9.690566596214824
15.55944646,4.728665515367599,-1.8900217133430484,10.2782570874815
15.56949346,5.94510595094415,-2.320896885522203,10.092622929470368
15.57953946,6.1470491398275495,-1.86746714731325,9.100325292831839
15.58958546,5.861989150787133,-1.9676719378791225,10.186765900739273
15.59963146,6.316964602174164,-2.5571407729666484,10.743413186561034
15.60967746,6.4014889829645485,-2.156479482848748,10.27195690269142
15.61972346,6.755050996978008,-2.429458177335223,10.134417936452817
15.62976946,6.709481069405816,-2.628690585960085,10.696571954049027
15.63981646,6.74596527832687,-2.2892051669722586,10.573990329789495
15.64986246,7.418990332928579,-2.6008816483554735,9.85002606282439
15.65990846,7.304765642905062,-3.191563092850419,10.357272074343674
15.66995446,8.008811165384985,-2.9809624859963226,10.720967072627166
15.68000046,8.591065240531526,-2.594789706642941,10.133411896851278
15.69004646,8.713977745462083,-3.6608138519005533,10.740145004595256
15.70009246,9.265608486062346,-3.197588603190272,10.716916315223001
15.71013846,9.056855920616284,-2.626106395475393,10.954757461738154
15.72018546,8.85533316243787,-2.8584434054680017,10.512332221075617
15.73023146,8.75091575418384,-3.4289522564988593,9.853202518226198
15.74027746,8.81586065236137,-3.21181011347543,10.277541706399395
15.75032346,9.47212474036638,-2.965020619935956,9.787710128619473
15.76036946,8.440403661634386,-2.8943478655448094,8.92988513927994
15.77041546,7.923347289868126,-3.5535454704164264,9.749432255108095
15.78046146,8.92730702470125,-3.6047346790828065,9.826777737943129
15.79050846,7.943934532181453,-2.594193045658029,9.184409298473037
15.80055446,9.362111364348262,-4.493796130474555,10.872785608020973
15.81060046,9.661612746702572,-2.342683269588059,8.837915867111942
15.82064646,7.719597961649882,-2.5689863060379374,10.85266131722113
15.83069246,9.500428673945185,-3.780557967119948,11.025311507297648
15.84073846,8.549615199173509,-2.521771448205163,9.85695919260279
15.85078446,8.426700843807268,-3.739822356176848,11.13701308452137
15.86083046,9.43299707468308,-2.7754147888828236,9.326693295760867
15.87087746,7.923366885626313,-3.179301518579241,10.266980572298063
15.88092346,8.205241221426904,-3.291444952699946,10.470646938669224
15.89096946,9.671628643505793,-3.161036146366595,9.684592901068692
15.90101546,9.259865920251434,-2.570669086857238,10.71366277524911
15.91106146,9.00139386945356,-3.199928553750317,10.493192023450323
15.92110746,8.994837521238084,-3.9662049539754545,10.181714989006739
15.93115346,9.247437943295484,-2.746090709140512,9.247911772418583
15.94119946,9.34981420501276,-3.3002635511810325,10.205513571694263
15.95124646,8.583662260849719,-3.2807788776216342,10.281849205289284
15.96129246,9.246325399177598,-3.690419562590564,9.690076788045914
15.97133846,9.051153443801645,-2.886353554392309,9.580346608781465
15.98138446,9.10713912586585,-3.5811131208975353,10.601766850742726
15.99143046,9.01855639254105,-2.9142445306654516,9.568395705718036
16.00147646,6.7785363821252185,-2.4760163182819643,10.095865418769636
16.01152246,7.959100954643388,-3.013245616664065,9.329420284646204
16.02156946,9.577239463586782,-3.416976913831624,9.306010280956192
16.03161546,8.76023764933353,-2.915694098899341,11.044956788617979
16.04166146,9.541523780191595,-3.247370018842003,10.637909633896912
16.05170746,9.285836933631316,-3.2670683383117183,10.251359672712594
16.06175346,8.611651406944475,-3.2441792580612483,10.825184821748277
16.07179946,8.950084156492442,-3.0775513604755065,9.994390519224286
16.08184546,8.915691469022141,-3.284554765199385,9.57026793830878
16.09189146,7.889115667662544,-2.7698945337023466,9.919094787776377
16.10193846,8.867978724388294,-2.71157575897146,9.489934708814864
16.11198446,8.878346154451878,-3.3741031362544316,9.922090414397251
16.12203046,7.602763381542938,-3.5743076643989578,10.627054722182283
16.13207646,8.574536482874441,-2.587661415724101,10.181346613641523
16.14212246,7.616828691230519,-2.5414628618062816,10.130040386184984
16.15216846,7.441389824774449,-2.9973002125077786,9.935585409777204
16.16221446,8.16345295689164,-3.1204522767356475,9.93281357942976
16.17226046,6.963371229890166,-2.260608429469411,9.775500864481533
16.18230746,6.427044107795161,-2.2860245158957393,10.184852050912907
16.19235346,7.900611980513616,-3.4896004153295155,9.339676979580842
16.20239946,7.69889593196316,-3.0125667458073635,9.31663059694589
16.21244546,7.673666420656914,-3.1721315290658376,10.489260251397337
16.22249146,8.45277682448985,-2.5760386920796554,10.471888448732571
16.23253746,7.580284497639288,-2.6889760899256165,10.486836980308288
16.24258346,7.502492140136715,-3.2438734428349325,10.351158816019701
16.25262946,7.025287999907365,-2.996535501996924,10.688471770248533
16.26267646,7.221011239564455,-2.6644712549895897,10.844384025530584
16.27272246,8.079482134410782,-2.6700010271829275,10.27769748156586
16.28276846,7.344910316622806,-2.883451650955379,10.196444614422226
16.29281446,7.3808178278295085,-2.5021569998422444,9.607373634254758
16.30286046,7.43357894078981,-2.600701195671861,9.559417800762457
16.31290646,7.40324809080145,-2.8645117500337243,9.853044496132597
16.32295246,6.8935006151302956,-3.7561218179726774,10.946311260588724
16.33299946,6.506619976799675,-2.599832205340664,11.05815505424563
16.34304546,8.007273091189704,-3.1187668167680633,10.048505241603095
16.35309146,7.460540150005574,-2.616281919280577,10.496543484915504
16.36313746,6.698600358315328,-3.8070207308281807,11.535750864229561
16.37318346,8.454789910031911,-2.5839310574446035,9.594324150881699
16.38322946,7.981560167982651,-2.532355906197902,9.735739876376618
16.39327546,7.824190991629351,-2.8767106085747525,10.17464353403292
16.40332146,8.021058906659404,-2.185741530300593,9.470681905354265
16.41336846,7.063353931195623,-2.8854936311371353,9.665337294059665
16.42341446,7.874918109639409,-3.643157770590158,11.182913683224948
16.43346046,6.8940641024790015,-3.28710063340815,11.830321380710917
16.44350646,9.170556514960813,-1.038111531324101,8.615790661988733
16.45355246,7.3765617615008034,-3.058313563049125,10.411951088032499
16.46359846,5.654628585768494,-2.845778511178048,10.59048922011561
16.47364446,7.893195154842353,-1.7918722992683975,7.88999987231224
16.48369021,6.848752039208258,-1.362635940758051,7.649036827174262
16.49373721,7.390951831157357,-4.899106095369401,10.821670585846778
16.50378321,8.468035631247623,-3.1399795192738473,10.030006660352493
16.51382921,7.158594636523997,-1.826520327507789,10.383797288981308
16.52387521,8.157729622944824,-2.2078099379540204,10.68645376919293
16.53392121,8.004011713202505,-2.5462604119955574,10.794393134188335
16.54396721,5.803342683364445,-2.0539644377889084,10.500426140324597
16.55401321,6.977481984855354,-2.132339744813889,9.838183682394362
16.56405921,8.088759256051365,-2.087210350415661,8.965579393319107
16.57410621,7.948291305605194,-2.6546784332145865,11.075933234035622
16.58415221,7.565053548318418,-2.583616138357807,10.93232224135366
16.59419821,7.505633087854493,-2.0872989985731767,9.356525148551095
16.60424421,5.585063674736347,-2.192308415740985,9.016182408994641
16.61429021,6.734106291220864,-2.4679951247736054,8.199394290314256
16.62433621,7.11065353109716,-3.4083248550445413,9.26682662028422
16.63438221,7.193262244621323,-3.535918731148494,10.193543160425078
16.64442821,7.376129341148676,-1.9631820771813524,10.283052593350062
16.65447521,7.449188793407602,-2.027287787583084,10.272174434855454
16.66452121,6.750544747988855,-1.7251195556534644,9.95706134895771
16.67456721,5.408248857975675,-1.9240713385015424,9.379527003775488
16.68461321,6.330360787708654,-3.474371962151776,10.148452631004915
16.69465921,6.559098529026344,-2.247895257321444,10.82019964775149
16.70470521,5.954356644994922,-2.002217662073553,11.765627575263212
16.71475121,6.981749246225412,-2.3013461248679365,10.353371566998462
16.72479721,6.050732130606543,-1.8059982426267933,8.963535150690294
16.73484421,6.554398709994353,-2.7784655587539477,8.987798773334436
16.74489021,6.466384592919982,-2.6121324468918603,9.179866800195715
16.75493621,6.046775420729322,-3.363722466094171,10.924252606365734
16.76498221,7.18592808857315,-2.5480437653550116,10.968812206003916
16.77502821,6.589196758882242,-2.144216472387607,11.32413215949904
16.78507421,6.490602354302652,-2.07227839165556,11.094906676243804
16.79512021,6.810818597463562,-2.2379434754535152,9.576027774610923
16.80516621,6.803017133576107,-3.0668549426995075,8.31311847788999
16.81521221,7.097802879195823,-2.4734951897907544,9.138732348648675
16.82525921,7.159008648581525,-2.435133785190576,10.114601286021152
16.83530521,5.7128147072854665,-1.8498820446349942,10.550267874604502
16.84535121,6.636415306355178,-2.77635268549149,9.763910285679453
16.85539721,6.757475757218249,-2.665173255924853,9.966558932493427
16.86544321,6.336859034610208,-2.7069044120343686,10.731566753608654
16.87548921,7.228880379902906,-2.5283278791586503,10.276544991235205
16.88553521,7.382460273787051,-2.4913575350213524,9.678769754955493
16.89558121,6.693109289373673,-2.7517321786454563,9.743659129102117
16.90562821,6.4565806255757145,-2.949503321314311,10.796164806641254
16.91567421,7.05398385635096,-2.2728651481305593,10.273181609991365
16.92572021,6.976420143886415,-2.2532388464035003,9.674514307765474
16.93576621,5.663547443673137,-1.9963749942551088,9.118529934988178
16.94581221,5.0411842916831775,-2.143596383441047,9.523302415199119
16.95585821,6.340927433984015,-3.1554718282338894,9.409238738027188
16.96590421,6.249515667400523,-2.1818725374226657,10.243663725681154
16.97595021,5.648336092663211,-2.2254536092628356,11.769399118077956
16.98599721,6.946443269930056,-1.7126465914225828,9.826286204120247
16.99604321,7.211400379031084,-2.6772935495193786,8.430660255898735
17.00608921,5.669685481827233,-1.6761457114237208,9.974816631653018
17.01613521,5.795404092984971,-2.0956521267952217,9.897832628862005
17.02618121,6.95211025404765,-2.5264096792386694,10.622565719630126
17.03622721,7.239285436160956,-1.5782671724671313,10.553892639807229
17.04627321,6.6898265124715355,-2.3136994088496374,10.211594387678417
17.05631921,5.379518791600449,-0.495614116470186,9.759958176323911
17.06636521,5.096271954188773,-0.8826689847041327,8.268859300004197
17.07641221,5.114385718100219,-3.1088538754287462,8.793778974092582
17.08645821,4.362637574592734,-2.2596989619709222,10.554020004803036
17.09650421,3.5618265308007,-1.377745246405224,11.558220022053568
17.10655021,5.167398121819802,-1.3806777109086894,10.501197523732499
17.11659621,6.0199691320593605,0.13013550714338304,6.363823208230146
17.12664221,3.5286261493198916,-1.1424923486842926,9.799913814536545
17.13668821,3.907878641873432,-0.5324997551780616,9.939269564009086
17.14673421,5.24246692072482,-3.4564224241969987,7.881368521329076
17.15678121,6.095119863419339,-1.9120950784989807,9.743822384940037
17.16682721,5.480397428552691,0.09656146757389435,10.549331220964344
17.17687321,6.526359008845558,0.3337497465688743,9.652426969151387
17.18691921,4.09754378892184,0.6763904577611105,10.508484814007536
17.19696521,2.787127599581733,0.5340622739958767,10.208440567767099
17.20701121,3.497701672660251,-1.0968114313271065,8.21049951896612
17.21705721,3.5603655817370283,-1.967787422733345,8.756205530773125
17.22710321,3.129685321191245,-0.17453442206038988,9.951214726281279
17.23714921,3.817004253453342,-0.6269876474810716,8.635475239307377
17.24719621,3.9067916731094114,-2.2295072699907106,10.4501823825959
17.25724221,4.589991236918728,-2.186365369235511,11.11249805068479
17.26728821,4.0501789150403775,-0.27603977126420726,9.9572138699118
17.27733421,2.530482526757612,0.37303542536639683,9.787062643987383
17.28738021,0.8649963780865368,0.8245032864964705,10.93502876807717
17.29742621,-0.46037612150889856,1.0911704047663315,11.366598670924382
17.30747221,0.06588425418111292,0.9012920425893639,10.19956043247484
17.31751821,0.5005257091021378,-0.1866037264138122,9.804932812249442
17.32756521,-0.512739842291888,-0.041921992669188154,9.40473121496235
17.33761121,-1.7861834911364805,0.046385155009203136,9.378333576742968
17.34765721,-2.404774397363761,-0.4297150031217689,9.487164476268534
17.35770321,-1.3461024566419997,-1.8983978109683515,9.639893657209411
17.36774921,0.23838242003122084,-1.6849199075746584,8.43046885626825
17.37779521,-0.4561990909484321,-1.268533153234278,8.705499550055894
17.38784121,-0.8372090874002015,-0.36713072916051515,10.270640894192402
17.39788721,-0.9208624823113173,0.7527556826496936,11.196065539621598
17.40793321,-1.482415391401697,0.831063770550139,10.821217158561286
17.41798021,-0.35582137180611434,-0.11765863876137521,10.311058322212537
17.42802621,0.9125111038878039,0.05489717332389404,8.591897273777292
17.43807221,-0.15550747549504346,0.4998644991965592,9.826780074019286
17.44811821,-1.8004814898351678,1.2122017552599937,11.008070610239013
17.45816421,-1.581489563419081,0.7575825651606733,11.137951359214572
17.46821021,-0.637714715233454,-0.20194439347463208,10.35428269806458
17.47825621,0.538863281090714,0.39493536935750995,8.6697305633207
17.48830221,0.9723667590533602,0.3110044505433381,8.500908917941482
17.49834921,-0.3512137328831175,0.9724556588713678,9.567201321187447
17.50839521,-1.3919949586710458,0.7964163908668429,11.107611350302179
17.51844121,1.011150299379961,-0.5428264108552214,8.852930700661297
17.52848721,1.2140817147424168,0.06288970703670661,8.175481863576337
17.53853321,0.8772012193660259,0.46200786787874604,7.474461909325763
17.54857921,2.299323521879441,-0.05267261453123899,7.282947778652332
17.55862521,-1.8927402090389231,2.9584920206298477,11.909782063944023
17.56867121,-2.9798623067173695,1.8989145925265614,10.995731689936727
17.57871721,2.305713731109636,-1.1759891537332723,8.142642705921755
17.58876421,-0.43465352697212767,3.248300360676272,7.217777403515059
17.59881021,-3.902893407979271,1.1887872237061154,12.120559194999748
17.60885621,1.4718225800025253,-0.036792491415034025,8.393264965877211
17.61890221,-0.31234757993661727,2.3821087375710803,7.872098213612172
17.62894821,-8.098354051932057,0.2413275458157835,18.34578502963855
17.63899421,-1.5413486816789845,-1.2415680493346777,11.753324556121395
17.64904021,1.3762067565732807,-2.670351358023685,9.899625349062562
17.65908621,-4.022412379892185,2.398122578294144,14.853941555426116
17.66913221,-4.45565161451333,0.0621398205399803,14.352140022934732
17.67917921,1.065171973050942,-2.6831535778440676,11.75581237661569
17.68922521,-1.8273638901542875,-3.6793296236496658,13.751785218460155
17.69927121,-3.521675238897971,-6.02752400392881,18.239365564555126
17.70931721,-1.933748689124978,-5.7121122872928884,17.581608575374446
17.71936321,-1.3147266054116438,-0.4932851873400534,17.777494950631525
17.72940921,-3.8279262348864216,0.5375733940098315,17.866231041661568
17.73945521,-7.771387530153356,2.3083055215595105,21.659935617505244
17.74950121,-7.050697678363011,5.522261746094504,19.827328619284998
17.75954721,-5.8415950288109695,5.324182648425872,16.713416021975632
17.76959421,-8.059123981298491,6.113899563353053,17.42388818603055
17.77964021,-9.508303815181073,0.9146030183680108,20.8384132325446
17.78968621,-1.76850954407495,0.02279634975346663,16.267132575489086
17.79973221,-2.828805596515484,0.5040852966020734,17.583549818138263
17.80977821,-4.408981014943676,-0.47709054063033146,25.29868477092739
17.81982421,-1.0541356484531474,0.03903245714084683,25.872011655399955
17.82987021,-1.9985111696937903,4.755955540297657,31.539433432468435
17.83991621,1.715899491025774,5.882663182320701,26.972572521853564
17.84996321,1.986545662969931,7.418261176754162,19.22634637512869
17.86000921,-1.089704276151371,3.4049884238487826,14.039108319904987
17.87005521,-5.0066641685644235,0.3582302291496549,19.239253806735917
17.88010121,-9.490736203405323,7.020667008371472,21.69776208505656
17.89014721,-7.2350385230979075,3.8370634210553978,20.639124214058224
17.90019321,-5.762184079344805,0.9362052543943002,25.51884268170035
17.91023921,-7.634780553324993,5.186335355267211,28.376969313168207
17.92028521,-2.104219432873588,4.0078551700123235,24.36050600272965
17.93033121,-5.002041173947307,5.626260124181854,24.877893511653912
17.94037821,-10.289317112610055,4.338467517369292,27.679304365844768
17.95042421,-4.444491701906281,0.6460913147920451,25.554391218560344
17.96047021,-4.856999596728966,1.9542024041290802,23.246651707452692
17.97051621,-9.775277124882527,4.00486261498682,26.443055574212615
17.98056221,-6.289455630146177,2.517179561315605,25.045754914786386
17.99060821,-8.402459584116926,7.003038600591341,26.929016199289247
18.00065421,-11.387228179843724,10.40092957206174,26.00849285102273
18.01070021,-12.138979015567177,9.66284502079777,26.469549372852807
18.02074621,-10.930933142135205,9.49279500574068,25.75378636547653
18.03079321,-11.708334810337355,12.642637339268342,24.99922805940374
18.04083921,-14.670035439326446,16.44769025072349,27.038686122444716
18.05088521,-13.327020589479195,12.993368577826617,24.40447547114262
18.06093121,-10.606794848090061,12.949458895350649,23.31841495779199
18.07097721,-7.988858216804057,11.280740410996053,20.40730334406161
18.08102321,-8.487587711941863,12.057146958891074,24.096335060183055
18.09106921,-8.848870659057141,12.94506102065541,29.19264466937322
18.10111521,-6.828657726820647,12.678548151202248,30.182227699322137
18.11116121,-3.0912206722514703,13.525555961392051,27.206797510077408
18.12120821,-8.502933208718938,14.427280845530467,27.490749174254482
18.13125421,-2.665681760607578,9.440901192052257,22.975349459764328
18.14130021,-10.752885167731211,12.904426822032365,27.40425085180145
18.15134621,-12.824832516642715,17.581515588005253,24.308843947155232
18.16139221,-5.208967562601189,11.734374587817388,19.86523893625191
18.17143821,-10.078097623567803,15.282670774975754,20.438627934680028
18.18148421,-10.116718928044113,12.11307238608484,20.377489019449506
18.19153021,-7.3998612350792214,12.706587042705461,21.572057839614285
18.20157621,-17.677844399940756,19.301571189861416,22.392911413744915
18.21162321,-16.612254031413187,17.796202606652834,23.343710962237157
18.22166921,-14.805323729904122,15.089891048812873,22.61553185200051
18.23171521,-13.93427038830008,18.03079827673963,21.998790844573875
18.24176121,-13.14441045619364,15.279860360133906,22.618144928069437
18.25180721,-13.162969724084672,18.777248091965163,18.98577686640083
18.26185321,-15.691715523606955,19.182195083219828,17.319568671001438
18.27189921,-15.369240837679838,15.689786196372532,16.749892194350863
18.28194521,-13.212588023817348,15.89569130605913,19.570773889114474
18.29199121,-15.036478781443062,19.16149936432336,17.51864183188684
18.30203821,-11.060401210029234,19.338593681815276,17.87162295367756
18.31208421,-14.660973015418858,22.668553978636382,16.60406519759733
18.32213021,-19.089107628422568,22.27215307565594,16.945944521545314
18.33217621,-16.656959230340334,19.305808522965624,15.612371122472686
18.34222221,-15.34042447081061,17.294192423268306,15.184542186546185
18.35226821,-14.419330960929628,18.47463501288425,14.406194551749
18.36231421,-14.789568066861108,20.63108180304587,16.744406204957464
18.37236021,-15.084712071447486,21.906341547017703,17.187102442469136
18.38240621,-14.397317448478715,21.497653978359725,16.830331119139224
18.39245321,-17.143637201692442,21.297928299659095,16.06869492680071
18.40249921,-13.483791645053369,19.259597500937318,14.097312495148474
18.41254521,-14.069053174029818,16.88030481843023,15.501477715554797
18.42259121,-16.316919990687094,19.162968116839934,11.083991214631482
18.43263721,-15.827794689758875,17.47914374700109,9.799573563925476
18.44268321,-18.202499397015902,17.496983279369726,11.23560334809061
18.45272921,-17.621748440405586,19.051312038996926,11.538433365168707
18.46277521,-15.558693974065713,19.7413913543714,10.371454879117579
18.47282121,-17.581727984289937,20.210024042842267,10.662790138598949
18.48286688,-16.290492068127296,19.643053147413934,10.779523857437788
18.49291388,-13.680147431564647,18.439755675627314,9.055873312758473
18.50295988,-16.53893681353377,17.046719887416796,8.036355338905379
18.51300588,-20.670528053691,20.301931321246844,6.549319406097795
18.52305188,-19.71392476664716,19.414924619646413,4.389907373483515
18.53309788,-11.786392407599328,15.608345672107404,5.9942030867388265
18.54314388,-17.361434466274318,18.72761866545368,3.6205575732012636
18.55318988,-14.16752907340513,19.288863213615887,-0.5156120075254169
18.56323587,-12.454407119612604,15.061267638636641,5.544329619041724
18.57328187,-16.83386589248711,15.349942765437069,5.568702832470762
18.58332888,-15.111487000077018,14.991512164611871,0.37786139962912463
18.59337488,-18.72714258589362,12.317200194764991,8.731766412432721
18.60342088,-26.759100108599853,17.02444700864345,12.430698646384432
18.61346688,-22.25782589940222,17.885875229901963,8.011228176234821
18.62351288,-17.127139240660256,16.339156909110713,7.446391892174744
18.63355888,-17.535034264961613,17.08269432164148,4.7144647486745646
18.64360488,-15.238316469789607,14.149552661754727,7.77795826524186
18.65365088,-11.345104850968891,12.691174619647265,3.443577302995717
18.66369687,-16.509248836171786,11.72160129635854,1.131139994348784
18.67374287,-19.76359182949444,11.878936517885395,4.287965118844931
18.68378988,-20.606679876233233,10.948473413915409,6.993153495675423
18.69383588,-18.207296471764508,11.52987160737465,3.1371526105045713
18.70388188,-14.4639183816717,10.519508202933569,2.2250071781642498
18.71392788,-15.98596123150123,10.496816888257285,3.8685849488509048
18.72397388,-12.392858874475838,11.566825333456736,1.070686604520348
18.73401988,-13.290639844641403,11.093106400074381,-2.56216498848743
18.74406588,-17.76943205934521,9.90456351752386,0.31346002376919535
18.75411188,-15.800060308802756,8.990653495680823,1.0179101315923167
18.76415788,-15.666890425288926,8.485712363568224,2.332431762373184
18.77420487,-15.878468700493874,7.943432730835941,-2.5590493631950904
18.78425088,-13.835896383613983,7.664076054011474,0.19959819205035476
18.79429688,-12.923643994360441,7.763715649497491,-0.25046825103980236
18.80434288,-11.461420282609195,7.966934034482865,0.8552438408848576
18.81438888,-11.919833398908178,8.491588545558987,0.7562183993462397
18.82443488,-12.558257062578614,8.412059979596282,0.7093003660951267
18.83448088,-12.118237839679315,7.84375201338255,-1.2607405374489642
18.84452688,-11.407177613937623,6.348253478533388,-0.9131304639099416
18.85457288,-11.3915843210938,5.873023967950492,-0.7089651656963216
18.86461888,-10.529750586538496,5.801622368829032,-0.1294390273811972
18.87466587,-11.488526033556651,6.230701580547986,0.3994959273127273
18.88471187,-9.505208899528059,5.671065847879163,0.7208074344070867
18.89475788,-11.067715788100447,6.370154729347225,3.5176881858117306
18.90480388,-11.48553431282248,6.8137323692822696,2.1872029344299118
18.91484988,-13.605066598674666,5.215376301806954,2.2513684321936487
18.92489588,-14.986730140952123,4.566125182373599,0.06792540406006993
18.93494188,-12.295805633315371,5.588506060033498,1.7926051724250105
18.94498788,-11.19353404723293,5.027151623680967,2.77933836752162
18.95503388,-10.94595695404015,4.276413756131518,1.0571418818873064
18.96508088,-11.208003018645874,3.094731804128033,-0.011094893949793867
18.97512687,-10.911588419997294,2.110022762889735,1.101864500469122
18.98517287,-10.380881165698542,0.9008525463387073,2.1479780248137312
18.99521888,-10.723724753472862,-1.1182678126175603,1.8081668575123542
19.00526488,-10.585647603773094,-1.4294449298531018,0.4009147450266129
19.01531088,-8.72829446563191,-0.8699011206403503,2.9158050375498235
19.02535688,-8.964922247759372,-0.48829231267701784,2.1252934732666526
19.03540288,-8.185923980286967,0.9230941072294795,0.8737597257146377
19.04544888,-4.3462116614230295,1.9837840973224354,1.8233991189388572
19.05549488,-6.201069354604421,1.3108877580432594,2.1916692498556043
19.06554188,-10.970256258973523,0.6759274076161758,3.0052784295226087
19.07558788,-7.784138680164533,1.1719748357824882,1.8506326194704517
19.08563387,-3.260822039945576,0.7525660920168817,0.742768981252908
19.09567987,-4.070262991254411,0.9409425428972327,3.4073188735369535
19.10572588,-7.306105242038839,1.6455444034155122,1.6544754020018397
19.11577188,-4.24944914830453,0.7482663875263335,-0.3610898669852263
19.12581788,-2.1437259098183463,1.3334283342980797,3.38363141120132
19.13586388,-5.922157449178243,0.20182297577455877,1.405701574838392
19.14590988,-5.579384935261772,0.24271059942162065,0.047140807774323196
19.15595688,-3.271249993649486,0.32439752330746796,2.045978568202674
19.16600288,-5.176840571562114,-1.1412470852883403,2.086379924347096
19.17604888,-8.387538005417976,-0.40365575094569256,1.8806756573106849
19.18609487,-3.706006953479941,0.3569898839382737,1.9493633518709004
19.19614087,-4.128405352700045,-2.028344056130278,1.5192577445197513
19.20618688,-6.200595593205031,-1.7735188744215113,1.3682705668831907
19.21623288,-4.57144093293774,-0.4035909279123832,1.5451589995654487
19.22627888,-2.889481042910995,-1.2769346308939589,1.372880428809006
19.23632488,-2.7602691896485743,-1.1608996524694264,3.248058084055176
19.24637088,-1.7204449856817678,-0.5586238372188769,2.5011989679942754
19.25641688,-2.962745177062182,-1.8806164362029298,0.8575911587878378
19.26646388,-3.973231926238896,-1.4884527296416508,2.773172988386051
19.27650988,-3.540316785001235,-1.181906277398901,2.5724851109156073
19.28655588,-4.029710164611097,-1.997809230556158,2.107668039433651
19.29660187,-3.249885187464352,-0.7779655262897605,2.6678402343150194
19.30664787,-2.1695256338237825,0.4069191167383087,3.6435102637004975
19.31669388,-1.6060014454860865,-1.1001992696234244,0.291739430244319
19.32673988,-1.6678468141136853,-0.826027010041778,1.354759955530784
19.33678588,-2.9022849653175147,0.21629791525851552,3.488678920707841
19.34683188,-3.5357989819037487,-1.1735260241002834,1.806851484364914
19.35687788,-2.070986555307091,-0.8815073360491391,2.4871138869160054
19.36692488,-1.5213578160847405,-0.5557804464495152,4.4846654478940104
19.37697088,-3.119708831528428,-1.2268263092811418,4.248373631150529
19.38701688,-2.959968564106436,-2.4481207297867695,4.402746155872069
19.39706287,-2.7508708542998597,-3.653450125876174,4.639803278226441
19.40710887,-2.652350363530862,-1.1666808717933554,6.8151955244315685
19.41715488,-3.9563208345124234,-1.9737449894707788,5.935437470915949
19.42720088,-2.6040947565272674,-2.711133499964912,4.153156727497643
19.43724688,-1.1045546423895607,-2.0158894312385853,4.6590497740188574
19.44729288,-2.9041300460621,-0.5202089834477255,5.53353428211357
19.45733988,-3.423214683489326,-0.03438130467173209,4.856828425810287
19.46738588,-3.817089239035975,0.06474830388562106,3.894174834635788
19.47743188,-1.8706229329894128,0.5942455192674486,3.7162230188951244
19.48747825,-0.28478680415433927,-0.0019924314686428574,3.657935248046341
19.49752425,-1.5170448233531122,-1.9863721728999397,3.418095280842827
19.50757025,-1.246583834850165,0.6964880191348474,4.816819137218302
19.51761625,0.8955433042535847,-0.9366783313859612,4.067721419056633
19.52766225,-0.8788800085407086,-2.1697343907575823,2.660750385153806
19.53770825,-0.9214694310445729,-0.36363101450853175,3.399024238780718
19.54775425,1.3159863774182992,-1.607403365608248,2.7091317208902317
19.55780125,-0.6911020433071181,-3.1617975411091024,3.553833140119509
19.56784725,-0.5889085466201904,-2.049609498248108,3.574690873171694
19.57789325,-1.4662039947902454,-1.7081769064901573,2.0012658230147538
19.58793925,2.198872572405957,-3.4199323913740005,2.5906713060143076
19.59798525,-2.1461206136030615,-3.1797409858788006,6.467045080050698
19.60803125,-1.0964781799079582,-2.2551388139216524,5.486836289372741
19.61807725,-2.3631286211715175,-3.2121980905842804,4.327500071561375
19.62812325,-5.648556676263953,-3.1866148376449,3.8083319668555817
19.63816925,0.48848308019026176,-2.1820885044263845,5.976886305120944
19.64821525,-6.062050881512209,-2.7736454873539973,5.201741868741393
19.65826125,-3.08829852635418,-0.13907376471764496,5.033565320730598
19.66830825,-4.209403156484286,-1.169805187834807,5.692401245791078
19.67835425,-2.5381112649100688,-2.2269342604678593,2.4990439676622174
19.68840025,-2.8638842451271778,1.677522432733812,4.3674669818562295
19.69844625,0.03145606816178392,-0.35538443911566503,2.7234292336477437
19.70849225,-2.8639023350908293,0.7849117861760252,5.730710502302629
19.71853825,-0.8182549740555914,2.425979431775105,4.575068105870474
19.72858425,-0.743826022953886,0.1843158534679363,2.6863142844655776
19.73863025,-2.0730068603986807,1.1132202762151395,4.981283983311427
19.74867625,-2.393795995453234,-0.4053814458119772,2.4022038040942055
19.75872225,-0.5477536683625078,-1.3781906139314035,3.012971851136487
19.76876925,-4.70766279097695,-1.2670937344430486,3.5449191613950632
19.77881525,-0.8892498148544935,-1.3623648648454034,3.7484108310977855
19.78886125,-4.32295986989106,0.8580247040738822,3.0585530791227904
19.79890725,-2.903042480382089,-0.691665548862255,2.467923679363187
19.80895325,-6.25012763490906,-0.6977422145205123,2.98411903501474
19.81899925,-5.350040186329242,-1.8526112008222047,1.2475863372994718
19.82904525,-4.8644283168872615,-1.5394869775625308,0.3246948304758623
19.83909125,-1.553675053875211,-1.2797996508870002,1.345375690179276
19.84913725,1.6474338877899561,-2.1791460022169526,5.912849433123713
19.85918325,-4.634819314967155,-1.9685591834555625,4.333601141092638
19.86923025,-1.2625990513184346,-1.1115077973301157,3.8511843233420198
19.87927625,-1.8978581752282015,-1.2371054938899717,1.7379414875102965
19.88932225,-1.6176483362264389,-0.6206715765321826,2.2923165230309945
19.89936825,-3.4132847080015174,2.1848892476162534,3.1176993855917288
19.90941425,1.5998671017194026,-2.246247640814619,3.1690266082460274
19.91946025,-4.359901482256258,0.020937077178333683,3.9115110550363914
19.92950625,-3.259402554822322,1.147568290974997,3.1597201969851527
19.93955225,-2.2935303544760277,-1.9292871324267913,0.8201094639650217
19.94959825,-2.7175305410320267,-0.06256981648398591,1.947718432470649
19.95964425,-2.615850818134417,-1.552042896786777,-0.20985691442837068
19.96969125,-4.761476318466772,-3.612669085616596,-1.0311918473455135
19.97973725,-5.079346452423152,-0.917892682735015,-1.0946461423540261
19.98978325,-4.291267994704903,-0.2284480497912869,-0.935473116755482
19.99982925,-2.8331219169725355,-2.486695841862482,-1.906025411618003
20.00987525,-3.052270818701159,-1.5673094548715074,-0.7604882146359914
20.01992125,-1.9443077882882678,-0.18788895071897846,-1.0109295539126426
20.02996725,0.15222777185608602,-1.9125457305044458,0.18498324581872147
20.04001325,-6.003406548830696,-3.848726042826656,-3.322278474795317
20.05005925,-2.7629409068104467,-4.052382016461982,-2.024848990510652
20.06010525,-0.9514606297774217,-1.5349947844873155,1.6522769146928453
20.07015225,-1.2400011147776375,-2.5531540081027546,2.601218224361426
20.08019825,-5.3929625505955,-3.4961251241526603,-0.6285226480689681
20.09024425,-0.12491012732555618,-3.499507606234089,-0.8671898584748791
20.10029025,0.028443228913101096,-3.097452044652078,-1.0382907448280803
20.11033625,-4.9164772225672735,-2.4348073039232054,-2.6313503244974257
20.12038225,1.8706541733635362,-4.237212713380347,0.1831737667066638
20.13042825,0.014754841225797672,-2.168177644316687,1.3507265567392897
20.14047425,0.4123195834615565,-1.818203314465957,-1.4331652439323526
20.15052025,1.4909089664980855,-3.2398844848928117,-2.412029994180045
20.16056625,1.5307402773499275,-2.499039906476638,-1.9216987629999376
20.17061225,-1.7137552023728382,1.6311736024095227,-2.4486108610867947
20.18065925,2.435263528753719,-1.5007497774139011,-3.0611665720666745
20.19070525,1.5091617431120108,-1.8923783716942768,-2.426903725238455
20.20075125,-3.9784666351368294,3.803840266335356,-5.520832312481562
20.21079725,2.287052819482141,-1.1543826505639543,-4.299674703648317
20.22084325,1.9220152499638998,-4.133612974178357,-5.677567880496349
20.23088925,0.42946230208499137,1.0094193251624852,-4.338247532820694
20.24093525,2.0082004658938937,-3.767141229099697,-4.581274471565347
20.25098125,1.2469107809617803,-6.654328985122924,-5.051722629340547
20.26102725,-2.249186680584413,-1.1728747181649666,-3.721184154864141
20.27107325,-0.08060831393767413,-4.012449896010423,-4.44226394040482
20.28112025,-0.7341423825587402,-7.248939976472528,-7.248650942207598
20.29116625,-1.4745589702793265,-4.1272932899472075,-6.695808534405738
20.30121225,-1.8788092371164762,-3.6040456456847654,-6.906256804343277
20.31125825,-0.5211713342335869,-6.401574227688754,-7.537597308135174
20.32130425,0.963255109944919,-5.525471237965866,-6.433365808717706
20.33135025,0.4979523428659985,-4.321047924723602,-6.520355149106269
20.34139625,1.9593840201714565,-5.828097303809209,-4.839725733769386
20.35144225,3.3463508783461267,-4.996899074314778,-4.303250132725413
20.36148825,0.807496405492989,-4.2170126313588225,-4.676386756445585
20.37153425,-0.3238481960056047,-7.752724836454177,-7.352491716725019
20.38158025,2.139262150292469,-8.928114671029544,-6.512454411805892
20.39162725,0.5808437897445535,-9.0568500233456,-6.14982199058786
20.40167325,-1.4579018368836607,-8.47488190941049,-8.109331679887527
20.41171925,0.04883979130092503,-8.988532095293408,-7.501562390751822
20.42176525,2.8519012377405812,-10.751628610606485,-6.791440112312229
20.43181125,0.8785536608920782,-7.728437236680859,-7.59009714783272
20.44185725,4.231629747073435,-10.31678425513367,-5.266868631807784
20.45190325,4.88710246289113,-10.491745784754194,-3.7097714168330995
20.46194925,0.5977669733129233,-8.819964541570336,-7.220357924572254
20.47199525,4.244277816957709,-10.30915289906914,-5.665812630860693
20.48204133,5.3705314882753825,-13.205495788105399,-6.131788577788583
20.49208733,3.366392438050969,-11.538402922706197,-8.91364279863181
20.50213433,5.0258713829450725,-8.857607973289879,-6.71900959247547
20.51218033,6.195943319405268,-11.788654733105409,-6.817603336015907
20.52222633,5.848678086940561,-8.978941567059588,-5.948758661764735
20.53227233,7.745320580319105,-7.8778257933210165,-4.707543097204689
20.54231833,7.674265966990825,-12.239530621061688,-3.9732324288604812
20.55236433,6.333846550987846,-11.896790217031008,-5.106368814200193
20.56241033,7.246157287889717,-13.440350897376979,-4.928341160251248
20.57245633,8.221359787080537,-11.705181549769618,-4.031546664149638
20.58250233,6.681541889015326,-12.860058159522069,-5.935727783311331
20.59254833,7.4311990222599285,-11.201224512436344,-4.474112881549049
20.60259433,7.405295460074356,-15.403384940554545,-5.94815531991989
20.61264133,9.411627817635196,-13.779256672947591,-4.271987317266247
20.62268733,8.718880207309489,-17.737684148833033,-4.967864636296616
20.63273333,6.110341206410884,-19.867463636647095,-7.6131455950826705
20.64277933,6.401117698539484,-17.916675003881487,-7.26675020234924
20.65282533,4.662992376041846,-18.230357309481196,-6.753527993032761
20.66287133,5.612369933273418,-24.89036104194944,-9.309866808357443
20.67291733,6.908487576276718,-20.669181266584683,-6.789183705084588
20.68296333,9.286918220894428,-22.154627218612163,-4.308407194370601
20.69300933,7.422581532809472,-22.455187433463415,-5.541876537323394
20.70305533,10.674856220823813,-18.791682230386026,-0.5525516135260516
20.71310133,8.485091441437136,-23.309141284475245,-0.35315232229419885
20.72314733,9.141569130302715,-21.249728524640652,-1.047680535163218
20.73319433,8.09720237021058,-22.682972390639492,2.3997205220003672
20.74324033,10.209546054366655,-24.481926170290745,4.241261907513147
20.75328633,8.54888170981866,-20.024813217237735,3.0037082373962054
20.76333233,6.612585263179313,-21.637722193812195,3.0517951937901784
20.77337833,9.065463106503353,-24.19774590677847,3.0208635320690664
20.78342433,10.736502670706084,-23.092012421625835,4.080567200747374
20.79347033,11.90448947808005,-19.69841727434638,4.027929567210733
20.80351633,9.474757137435574,-24.940953781817377,5.503687896777319
20.81356233,12.51747265277088,-22.37195578237591,5.2115012405588566
20.82360833,13.88211625820134,-17.365476980464855,5.137697068691985
20.83365433,14.058512470119343,-20.876625368627067,6.166770769250452
20.84370133,13.419945760582117,-24.62184109452781,6.4045672639415265
20.85374733,16.180922406853213,-22.898356598235125,6.756056364533432
20.86379333,17.715230508448766,-18.223184592858445,2.0478372614146236
20.87383933,20.863332606159638,-23.797556639337188,6.55571141603029
20.88388533,19.32600431105558,-27.784281055455722,10.969262169811012
20.89393133,13.820945781333938,-19.909337507150994,8.358425054085515
20.90397733,12.389058467612847,-24.953638737996062,14.179077874365987
20.91402333,10.400172682362388,-30.975915480705808,12.746119153577437
20.92406933,14.595477587274518,-25.299149930902566,10.628511999524934
20.93411533,15.200841407976979,-24.578143194679622,11.070651729208112
20.94416133,18.466341798796382,-24.80719971415344,13.356139118129468
20.95420733,15.560774698224693,-25.410175612888093,14.738999997426603
20.96425333,15.305362094250372,-21.672157360264936,19.013189060216778
20.97430033,11.833465146259178,-23.179824513173195,16.831510997399636
20.98434633,14.559361025479403,-24.573187361071046,18.25850343302483
20.99439233,16.448738581523916,-25.070593701374513,18.275441537004333
21.00443833,18.289324198663667,-25.523564002537977,16.116919958732524
21.01448433,20.921107413877863,-24.476533833473866,20.416281394670936
21.02453033,18.043364380662126,-24.232900620054238,24.049926437702666
21.03457633,16.408285899601122,-23.599129305974863,22.08253856641764
21.04462233,13.676634256282323,-24.61278808789567,23.169219205579424
21.05466833,17.356071381611144,-23.927107437604153,21.03040899074042
21.06471433,18.831563103447905,-24.577875517414068,23.67125372798948
21.07476033,18.029184713153683,-26.35134553727705,24.444446322440935
21.08480633,17.65044729123651,-23.297559675371037,25.803351503497336
21.09485233,15.14864883224346,-23.621070021080712,27.78781100381217
21.10489933,14.812930388488327,-24.265607812828883,27.707900445437172
21.11494533,13.468513155960352,-26.648109136844905,28.18516190408476
21.12499133,13.91013695466697,-24.965850321336085,31.207771156032074
21.13503733,12.693418543851948,-26.15943867323786,33.51646494664409
21.14508333,13.191313322859264,-22.082966170961324,30.690967118553637
21.15512933,11.599970686213052,-20.506161760646865,28.66900055114593
21.16517533,13.766613585894897,-20.41414827978442,33.54494435393737
21.17522133,12.632595552821218,-24.43293975162237,31.088325258243668
21.18526733,13.857878848615417,-23.04250520812495,36.858572838611465
21.19531333,12.90697184369276,-20.75599772215254,40.010072085321866
21.20535933,9.084263122976777,-24.1373127549117,39.105031065211456
21.21540533,9.157340796251487,-22.792601674546948,38.381446443070885
21.22545133,9.973136714309383,-17.417980367801867,37.99511152734716
21.23549733,6.985366736862155,-20.438984574629547,34.06052396201714
21.24554433,6.08340595899012,-21.447669341813157,39.51657315988641
21.25559033,7.6522759522633415,-11.297271889955658,39.25962546506625
21.26563633,6.213835266005,-14.91006422478425,36.13164058061375
21.27568233,5.655378782978815,-14.483272027502641,37.75653995269935
21.28572833,10.220313655465697,-11.029443807194735,35.6980954703187
21.29577433,10.266270140510969,-11.831104638657134,41.920048600368844
21.30582033,10.87788919378125,-5.83770802931442,40.600041686680164
21.31586633,12.236582066478315,-4.523215282687113,37.48740038684371
21.32591233,8.463268965250663,-4.315766321743966,40.07291825392039
21.33595833,6.745415205168393,-11.7021037909334,36.67901010997617
21.34600433,5.785922595915805,-12.915947686472492,38.45694569030935
21.35605033,5.57512219081698,-7.248162628821805,44.73354724387106
21.36609733,3.2466294723784177,-9.690965904700244,42.507914478171166
21.37614333,1.8873542584718896,-11.579806293907833,40.46069120670004
21.38618933,4.27791183097914,-10.3966369270811,39.162226292615
21.39623533,2.888016450194983,-15.121058711118346,40.72247304789078
21.40628133,0.8800314093241276,-12.197576172836866,42.183351768117916
21.41632733,-3.4259151390765306,-8.202120612125238,41.9583187451773
21.42637333,-4.409740664707406,-10.399959967886586,40.82850743598758
21.43641933,-4.7235269174128325,-9.238146585827659,41.03881734440056
21.44646533,-2.3191099598886407,-8.106711371737893,39.947595651850406
21.45651133,-5.098128406434477,-3.604595687055064,42.64179291104994
21.46655733,-7.154254867326635,-2.686456185767912,41.0152078861712
21.47660333,-6.20572425183343,-0.9160176895642029,39.910347023305725
21.48664946,-8.186158971151102,2.058199335564167,41.04842524189855
21.49669646,-5.594256459227333,-1.477248471869763,39.11139532948925
21.50674246,-6.152821443402383,-3.2973267085118914,40.01718728468921
21.51678846,-6.97239344207041,1.0536509494479864,39.65207519008239
21.52683446,-11.41524968742211,-1.0391096341116157,41.23103870064961
21.53688046,-13.857811354873663,0.31342821257883574,42.37122762964534
21.54692646,-8.728089040233305,-1.5873078252377089,37.25118395753838
21.55697246,-11.669647461159336,-1.9448647728121493,39.26157020721379
21.56701846,-12.337022358814867,-0.005210626865968836,40.552211492748484
21.57706446,-13.451475540640686,1.2646480924830659,40.61623982073537
21.58711046,-12.399057930867276,7.009511454714627,36.924816240232005
21.59715646,-12.843333741391524,2.7851707999794235,34.72918438920984
21.60720246,-15.38803277519419,3.1212634406587583,37.42920017824677
21.61724846,-16.41910459559727,1.1747230639745303,37.05889054804319
21.62729546,-13.720334483878053,1.0459112029145494,35.37720037916277
21.63734146,-20.74442181923267,2.0788996137516,37.337448127718325
21.64738746,-20.960127577799454,3.296180159979064,38.22013012143408
21.65743346,-16.365718062409083,-3.0759161860767668,34.34601247488272
21.66747946,-17.16446126870439,0.4875081465817935,33.260983124267845
21.67752546,-25.99736519078268,3.8481618070600634,37.52087855120537
21.68757146,-26.79864752246939,7.584208829149531,37.020135006024844
21.69761746,-17.19729491776879,7.943442013299498,29.248980156029308
21.70766346,-20.1520255016118,11.182509029659089,27.762966270177582
21.71770946,-22.10149122151124,8.74959285449353,28.32490310081446
21.72775546,-14.664684877561914,5.745809519082143,24.161470714151402
21.73780146,-11.920505501797189,11.19664671941626,23.664712170447004
21.74784746,-20.96127014470137,12.149590782565184,28.533447295950932
21.75789446,-18.518214467660076,11.13065055443877,28.257273406906933
21.76794046,-13.572070847474386,10.21115401051024,24.157629238189237
21.77798646,-14.99032831867407,4.211346296529919,25.31191547159013
21.78803246,-12.792734448763408,8.877820145507988,27.249824955484453
21.79807846,-11.217456491070829,9.397285467998248,25.212698465724657
21.80812446,-14.817646038300902,9.28303443731592,23.251200064710016
21.81817046,-18.070546974845062,11.115101863744128,23.33731911430109
21.82821646,-15.936282911859259,10.005568664887248,20.7859852114834
21.83826246,-19.148298126892954,3.013700096027577,23.685271992382916
21.84830846,-18.444927235774784,9.18772852588677,23.953573859814618
21.85835446,-25.330851200953038,8.842993812347487,23.345581359321912
21.86840046,-27.054818433532144,8.227310030204965,20.94386193691404
21.87844646,-25.99683856345691,10.846614964105026,16.864826923787067
21.88849346,-24.140303081052558,10.449921310360425,14.509731081672612
21.89853946,-25.758423969069757,8.16298657082908,17.242352709804916
21.90858546,-22.409783019183624,8.49095438667558,18.345018517455262
21.91863146,-20.54059370992409,12.030218105579513,15.734060887742894
21.92867746,-15.896235907917788,13.872731383210864,13.758220044863746
21.93872346,-12.513931443001647,10.189724241445388,9.715241239051316
21.94876946,-11.432463407759881,5.080559840934859,10.70949445309884
21.95881546,-15.371921359030274,8.501694647872156,14.557209809724926
21.96886146,-13.033383675039328,9.327589086768697,15.703247843254337
21.97890746,-14.711287385734297,6.98345417575372,16.29865283626515
21.98895346,-21.085576709185766,10.08530283495894,16.05865698349428
21.99899946,-20.270548686872786,9.19747929267473,13.517180721939782
22.00904546,-15.417958742448311,7.867847347926829,12.593690581107865
22.01909246,-15.50612665315159,8.757023356240763,13.456642328480008
22.02913846,-13.864901352135822,10.041775367830196,12.778654413429694
22.03918446,-11.800609693020853,9.32629903198235,9.362632134634657
22.04923046,-12.556012174170503,11.070933518617661,6.584796250371324
22.05927646,-17.398335605222652,10.258524160931799,6.471310376873574
22.06932246,-17.453194868073165,8.18161595334997,8.282261217686331
22.07936846,-14.860992438884107,10.364512032938979,7.831137792191918
22.08941446,-15.29907714641866,6.624843268171998,6.683585955015482
22.09946046,-16.67704909692348,7.335834924499888,5.337857912995523
22.10950646,-16.618734484368154,6.478159239884014,6.13919306644843
22.11955246,-13.462213012673372,8.8938621771397,2.8038341534292233
22.12959846,-14.65573830503811,7.7213468206786855,4.603044509990885
22.13964446,-16.087690321480412,5.703554621709097,6.682134880631777
22.14969146,-17.02543669300601,8.965984591771837,5.871699825345252
22.15973746,-12.073120135493115,5.486184513219076,5.581806781387503
22.16978346,-13.126612688185476,7.028176050936118,4.358932632004886
22.17982946,-17.45210620430329,9.013456521881768,4.842736819370657
22.18987546,-14.555612385935703,11.410869634637793,5.8042679454809765
22.19992146,-12.521105843528842,9.026240347468061,4.9436868863101155
22.20996746,-12.29997103652775,6.774358226136167,6.246326882981534
22.22001346,-12.779010780327567,9.536487361776047,5.513066068033084
22.23005946,-9.871146948038529,8.51752043407193,4.191158814917599
22.24010546,-11.174007046615923,7.988388190394304,3.002125017838154
22.25015146,-12.079957881607072,6.155750666833834,2.537878019096861
22.26019746,-12.860656248438517,8.458739407474239,2.84495040641513
22.27024346,-8.721927817885813,6.751826261514344,2.733032093234276
22.28028946,-9.507414042194108,5.985748365626101,2.538529100488697
22.29033546,-7.249282393269544,3.7950970956990067,2.3553943543426223
22.30038246,-7.821094609057563,2.7749257751255474,2.2530952723523625
22.31042846,-8.966192044005851,4.5910159707181695,2.2946253063665334
22.32047446,-8.017943438933175,5.091152842533341,2.7129260945092613
22.33052046,-8.87800454758099,8.338628569737647,1.5898366957502155
22.34056646,-11.627348837205083,8.415358656818642,2.1991205031674275
22.35061246,-7.251480352963377,6.786507732543624,2.6470719369436457
22.36065846,-5.556063693752113,4.379009019424134,3.1889116881711614
22.37070446,-6.216489370613135,4.861168309397693,2.4823201990067565
22.38075046,-6.3472940526874,7.25562932752008,1.5529001420746245
22.39079646,-5.957997974869265,3.8915526638271998,2.1211633430684276
22.40084246,-7.746657420322189,2.4861725108858486,-0.11067577996590647
22.41088846,-10.884637440246394,5.9261859839973,-1.3910114514189085
22.42093446,-8.68979970133032,6.051370147264597,-1.6957453317500435
22.43098046,-6.244313735378402,3.6562261895131005,-1.2720432805461694
22.44102746,-12.316431170111533,4.908984593648479,-0.1847239012659337
22.45107346,-12.62432280152623,5.025817910644763,2.471137102594648
22.46111946,-8.528587607849936,4.698860914738833,2.117072763476536
22.47116546,-8.46283101531432,7.912638188007585,1.539275498073618
22.48121146,-10.843353244585833,4.731178237457379,-0.15914804717197478
22.49125737,-5.037121453038334,3.334681405873518,-0.5112218861071152
22.50130338,-3.3909438070913516,4.6405557870878,-2.7672073543119082
22.51134938,-5.9956269870337,1.2453712645466204,-1.0599022769822652
22.52139538,-2.6628816342585515,4.542346478596493,0.22732362665668193
22.53144138,-2.294574088577096,4.546140905399513,0.5164557441874065
22.54148738,-7.352812755252466,2.215886937662704,0.8846933731788158
22.55153338,-5.8354818050482296,6.228132803800154,1.4346083319929348
22.56157938,-3.1100839221445873,3.9888582042884457,1.0291508963414664
22.57162538,-3.2823504692725525,-0.472523093585994,0.7974086846819288
22.58167138,-4.288790806760972,3.8086405062957525,-0.050402290570670034
22.59171837,-5.963250028426812,4.798868212037309,-0.7248972955900519
22.60176437,-4.7527548656097895,4.074178088549884,-0.24955739735151208
22.61181038,-5.047475123696431,5.87842116103335,-0.6176577075877562
22.62185638,-5.894112028133316,5.836301035329923,-0.0703732052003397
22.63190238,-4.7859894127334535,4.037144197945806,0.23240656751442199
22.64194838,-3.843996579562942,5.975763637317666,-0.36693088178484956
22.65199438,-5.68940280859806,4.882749053186793,-1.0573369943321638
22.66204038,-4.6375644425671485,4.349409820373747,-0.26483170592421296
22.67208638,-6.517264057592079,6.126600381987173,-0.5805413696819868
22.68213238,-5.6122540147382844,6.147410284220275,0.7884512594386102
22.69217838,-5.069961394816484,2.9505234845085977,0.05498170314539191
22.70222437,-5.150833841662192,3.0349283437587755,-1.1758514881129907
22.71227037,-4.035291613930374,5.352249160628135,-0.901507036715493
22.72231638,-4.272847611383417,4.850548681588277,-1.419694390123144
22.73236238,-4.643980552916441,3.9420311232844214,-0.6810525669297955
22.74240938,-3.707837661198746,4.507587482020456,-0.40734455984867773
22.75245538,-4.347960078249373,4.194455358430613,0.3332689065218756
22.76250138,-2.851325874994809,3.593475718189691,0.4989541417873453
22.77254738,-3.8186382618265067,5.070195123579765,1.1344557876770809
22.78259338,-3.295984462801104,4.593259961040839,1.2707165660269193
22.79263938,-2.205845576893518,4.293432538643678,0.4924837686439909
22.80268538,-2.707162083383246,4.724874769039796,0.24363560607864246
22.81273137,-4.172365941305593,4.397270568862862,0.013546716501977802
22.82277737,-2.9804765173791568,4.052703681793673,1.1435385911657119
22.83282338,-1.5946589129930182,3.5573524621965147,0.668317274504658
22.84286938,-3.10116578383872,3.453339722198012,0.10998700178603886
22.85291538,-3.7771801964150558,4.05580106104671,0.6476146629384522
22.86296138,-2.773523486672027,5.461647598380828,1.0342324042357545
22.87300738,-5.301952569384576,4.7085156062949425,0.16120170552092142
22.88305338,-3.5374559678548594,4.318662896307985,1.1474681798768998
22.89309938,-3.087885534214326,6.435943366343935,0.735361716567166
22.90314638,-4.661932497507517,5.2473453571755355,0.20872475008366623
22.91319237,-3.512481924068737,4.7759971235490575,0.6190188326591721
22.92323837,-3.307335098722064,7.134397986847742,1.1068806373244313
22.93328438,-4.30570838663082,3.3395496749455456,0.27012518667171437
22.94333038,-3.4409449797647755,4.829674338020104,0.34182005044204594
22.95337638,-2.695219747051535,5.895343852926141,0.9025466137128239
22.96342238,-3.8985665692556815,6.055653877252341,-0.21895892197042116
22.97346838,-3.450813884270817,5.71420463614783,0.6811014510621269
22.98351438,-1.5796029310090034,5.78606744505219,0.7487732769146326
22.99356038,-3.0057783327996614,6.2191127359528195,-0.31319393250217625
23.00360638,-3.819702773029062,6.111732629182516,-0.1431453379781972
23.01365238,-2.8875301129520756,4.951365282400261,0.5386404460650421
23.02369838,-1.6460396262844288,2.6939254000306123,0.10116346682196503
23.03374437,-3.0810942438012856,4.790585145954811,-0.04935849446993563
23.04379037,-4.393959196110608,6.837479238653342,0.389789271995898
23.05383638,-2.9551503936647117,4.029091622632709,0.7028221031069587
23.06388338,-2.4678720105685428,5.6837885940617365,1.2609214235086101
23.07392938,-4.459165687805563,5.53328384571419,-0.03746898450435343
23.08397538,-4.316867609044012,6.458398166378696,1.2631152928849698
23.09402138,-0.5883201586201223,5.402151468728188,1.4652015028403544
23.10406738,-2.799575796440903,7.63253955395084,1.540781281681961
23.11411338,-3.3287946916975617,6.533041520391055,0.9165215527359903
23.12415938,-2.199816381182009,6.474058978667162,1.7159939705357132
23.13420537,-0.6122340117326887,3.8604166391270867,0.9579525511691771
23.14425137,-2.9506695286508116,4.689944702515378,0.1986005578092248
23.15429738,-2.9572699517295704,5.8032193687218445,2.998520484940005
23.16434338,1.5748345512100232,3.0371249598676022,2.2210470355898373
23.17438938,-0.6131738207913113,4.1502531949064645,1.1616892416274482
23.18443538,-1.0978252301036007,7.8327054925049575,1.4214445295789728
23.19448138,-3.937202803942132,4.840638939310326,0.7212543072593579
23.20452738,-0.8609959836454427,0.3076099865789595,1.2516908317490532
23.21457338,-1.9635009437894337,8.666471301846567,2.8499088893935074
23.22461938,-5.215734010382034,6.390919743027635,-0.18995296399677242
23.23466638,-2.233192783192721,2.016303583596771,0.8461321659375429
23.24471237,-0.8404359000928228,8.627642277634667,0.8185368943028851
23.25475837,-5.339775434057473,5.7181352554290035,0.2400341702159457
23.26480438,-4.2228776966084,2.9617754995894527,1.326262019257498
23.27485038,-0.3920206437891906,3.5466232105765494,2.4564259798145276
23.28489638,-2.3677453357098206,5.006180522082679,1.8693780390211103
23.29494238,-4.54544796811818,7.16531986729066,0.04070450632863055
23.30498838,-3.361564463550593,5.093412501109341,1.2039780889283838
23.31503438,-1.197057711827938,3.4691481422204022,1.155389575526281
23.32508038,-2.0437204265438766,7.62816921807568,0.9145463060930922
23.33512638,-1.8949688747964435,5.630703304066632,0.4957637697760281
23.34517238,-0.7809704198271097,3.087623469760636,-0.8256579275245444
23.35521837,-0.6303578259924524,7.417916094315115,-0.8817760492273469
23.36526437,-2.5868857174242583,7.446076529536432,-0.05677617521454651
23.37531038,-2.414744130352235,5.5634671318344635,0.7273636729381584
23.38535638,-1.58939715041286,6.728641200965484,1.5694066253686145
23.39540238,-3.334668831335332,5.408310004051623,0.5731725404400793
23.40544938,-2.736039957406479,4.623616921442849,0.7549166423765826
23.41549538,-1.1570022290438706,6.30784632641242,1.7423292634999035
23.42554138,-1.5068987560583242,3.686369470296858,0.3489960250956685
23.43558738,-1.9135268379567567,4.5703535955073376,-0.6221878702581188
23.44563338,-0.8340382332765032,5.34158273219385,-0.009039731885656323
23.45567937,-1.1024870002205185,4.9515202391136155,-0.6451570159945804
23.46572537,-0.6292413910957614,6.198222950198474,0.09830911820273483
23.47577138,-0.7044257290396423,7.262381216882911,0.8054031606641143
23.48581713,-1.0458689125296372,6.39884542518457,0.5911509975609471
23.49586313,-0.7431971003735677,5.112238633468898,0.48519616644648067
23.50590913,-0.9533331743009186,6.059985190710454,0.2945340235544551
23.51595512,-1.5466831398437,6.876373606366815,0.45563400035762136
23.52600112,-1.4593487889561634,5.060411541175515,0.3328077234261945
23.53604713,-1.8569513779948528,5.840927657221892,-0.05787934266239872
23.54609313,-1.250623694730698,6.236179316448942,0.28077660599041454
23.55613913,-0.9017552490802231,5.793784874980911,-0.21586724493002732
23.56618613,-0.6655866065436752,5.385474070763774,-0.617007174806156
23.57623213,-1.0630371560078546,7.093889073421609,-0.4724893819934991
23.58627813,-0.6256139930216508,6.071554589557937,-0.03334234397858426
23.59632413,-0.7870077505471664,5.48323402695872,-0.774977973228153
23.60637013,-1.0090148446143508,6.221155582296118,-0.8698470098315935
23.61641613,-0.9727105590017822,5.569976605457054,-0.48302142760471867
23.62646212,-0.1742600029136469,5.927213017152456,0.15825834312021164
23.63650812,-0.9776829826082601,6.717002544441663,-0.7097207645048539
23.64655413,-0.6880640870582947,5.367665070312663,-0.310192690313026
23.65660013,-0.2531313950157359,5.462309716485919,-1.0329610105147826
23.66664613,-0.5258423898981605,8.079149900600687,-0.4579084408513754
23.67669213,-0.5494141319767208,7.312653369817778,-0.8993351210750093
23.68673813,-0.04349321694445383,5.618289972539025,-1.2228001652519973
23.69678413,1.0396066395637567,5.438749051052907,-0.7005393261506854
23.70683013,-0.2493321863873061,8.119764407222009,-1.7363643816360272
23.71687713,-0.2032955601548989,7.4634384547287995,-1.3893557469276367
23.72692312,0.4182817173028002,7.101275536282831,-0.9738384305362418
23.73696912,0.3376383287385695,7.590306038107399,-0.688325940526574
23.74701513,0.41916862715628017,5.933442765026502,-0.9339331891788363
23.75706113,0.16596113791356468,6.016203497892622,-1.4412696713362916
23.76710713,0.5692493322218631,7.865806614332991,-0.5844058348502184
23.77715313,0.6597052513232436,7.021509690562273,-0.5032155996471542
23.78719913,0.9128749343052368,4.132239926026727,-1.2580003793778338
23.79724513,1.5855360097811213,6.382758169968197,-1.252028705720612
23.80729113,0.0806619228058885,7.120100482276524,-1.7603163776766628
23.81733713,0.9560801275330383,5.9533336494456846,-0.8216641957684766
23.82738313,1.421243693767297,5.467507412421,-1.041898165416588
23.83742912,0.03595502355582228,5.768130239001441,-2.3598141697917523
23.84747512,1.0031789714605217,7.6562088098998204,-0.24659097448002737
23.85752112,1.7858646402589171,6.373112530701691,0.2609077087926678
23.86756713,0.692181734645505,5.6705755791923576,-1.7625030886459736
23.87761413,1.9791057867045714,5.378511929813598,0.13801308013784527
23.88766013,1.8087138957495983,5.648037724381949,-0.4785615773260925
23.89770613,0.5697280742941513,4.822466823847036,-1.6413166024588772
23.90775213,2.4574798946072742,4.753204005661081,1.7606205938699264
23.91779813,1.7253416232216998,3.1490422037375123,-0.7166705304218586
23.92784413,1.0314939717886409,2.570438122685465,-2.5315599278868777
23.93789013,2.189490412542483,5.748700007641359,0.4991482301005986
23.94793612,2.5206400967179103,4.125776522056072,1.1740043408353376
23.95798212,2.549374185455524,2.138686302333514,0.2746864499388844
23.96802813,2.648532556518866,3.7731311852650147,-1.9045768448956162
23.97807413,1.0689075512220318,7.173472636751124,-2.297772129740658
23.98812013,2.4270199730928925,7.535624176022592,1.2490903282367483
23.99816613,1.2605551598741513,7.380321019233706,-0.6550018789716339
24.00821213,0.9791780873295517,8.607433186278469,1.5176902484076331
24.01825813,0.7971840765730631,10.639911417563024,0.41798499585670496
24.02830513,2.1610023915513503,6.0215491090078945,1.2190646348448781
24.03835113,2.3785286000030035,4.989587585016501,0.2034994582431721
24.04839713,2.237818455564515,5.773777473589256,1.1069437592689102
24.05844312,0.9481078336252045,7.83171645311289,2.1119087108166914
24.06848912,1.2658052547421075,4.671476376373134,1.601357479858472
24.07853513,1.435062415887166,1.5072380115508204,-2.0390825788977693
24.08858113,3.359657994309549,4.66694477479225,1.4240329632047153
24.09862713,2.6140276392964887,6.013235737977887,3.5421006155443973
24.10867313,5.342718660812592,4.386663926525491,4.163294158144601
24.11871913,1.2204983232555755,11.38978954798239,4.44768922034311
24.12876513,-0.8572127595354715,11.35225593269111,7.527403757731738
24.13881113,-0.3264956745849505,5.718368418395855,7.0030495015279595
24.14885713,2.902999847467879,4.050273230441962,7.900838281605819
24.15890313,-0.9609865929856285,15.105979991907907,9.424596861800694
24.16894912,-0.483183679539873,9.550089088907875,7.216562405086977
24.17899512,0.4237344643834659,7.2036114622761875,10.401893533387709
24.18904213,0.27442916468936074,9.008639177348561,8.23956283363068
24.19908813,-1.3917639929183387,11.407338123694643,7.226556715349534
24.20913413,0.32163865687157556,8.435991449013779,9.421804344551099
24.21918013,-0.8603834559014245,7.721929662944801,9.427556381087044
24.22922613,-2.3991818098654027,7.075806513052977,8.379544829268442
24.23927213,-3.402213969245923,7.158387469190151,11.114502053212393
24.24931813,-2.010965304503475,7.639870022215787,13.131652528870498
24.25936413,-4.901058935238412,11.303106239749305,10.533116954672153
24.26941012,-2.6518262072812773,5.172560633748586,10.557320678149226
24.27945612,-3.3213783696464665,12.189040113975091,15.16769712959471
24.28950213,-7.250674676406539,14.312892575386984,16.942039774815626
24.29954813,-10.850449560608949,8.623789726395344,16.833102620860874
24.30959413,-10.504763122875326,6.9993326754002725,17.775056635508115
24.31964013,-7.371735347189825,10.550634494874123,15.427183232825936
24.32968613,-6.228946790869325,13.838448449271423,15.505936015196681
24.33973213,-4.737706894815141,6.37040396608771,13.727621231797238
24.34977813,-7.0292882577336195,7.680399381513804,14.646295245577775
24.35982413,-9.780353533841922,10.0095664256751,19.14053959759555
24.36987113,-9.75438835318357,5.471387760884282,19.289733176328575
24.37991712,-7.261596461709594,7.565493522919971,16.409797105737898
24.38996312,-7.562871388759483,8.117892952149552,18.579411282563804
24.40000913,-8.069766240017177,10.034211554059977,21.621223112772523
24.41005513,-7.342591237543388,8.451854700468617,23.19284873270435
24.42010113,-7.421715311548905,9.022540453727132,22.257325920528277
24.43014713,-8.802516656496376,11.977295071951081,27.361691939069505
24.44019313,-9.74693749567286,14.159030353544646,24.95911361597565
24.45023913,-10.195712847819557,12.359522833307215,19.848882176259817
24.46028513,-9.190885919743648,11.588228474430176,24.634959481249147
24.47033113,-7.482959034233161,10.248480965111378,25.098932191805332
24.48037713,-8.411381842719901,10.278185556045418,25.836775272090982
24.49042333,-10.028239734194528,10.505832492577618,24.74743436122986
24.50046933,-9.626539055037224,7.102856268388003,24.414161660109535
24.51051533,-9.770581791849601,9.619958041319954,26.352988045756078
24.52056133,-10.786623481496777,9.427226217574319,25.577242889769067
24.53060733,-8.831181806244992,8.424815286223463,30.927171639218372
24.54065333,-5.31903917017063,10.560511811095035,32.0810380589213
24.55069933,-5.313785760212237,14.479420907641465,30.62016983340672
24.56074633,-5.9759803894223875,18.61668226212043,35.856911649591964
24.57079233,-4.9635347712734905,15.627238255418664,36.613809298670496
24.58083833,-4.222238850843871,19.58817757945595,29.304240426280874
24.59088433,-7.612565052118999,14.848910951830801,31.435132205026488
24.60093033,-7.912544492731781,15.514907993085583,32.139050884402764
24.61097633,-6.962761787188847,10.388775883681989,34.35396261408462
24.62102233,-5.801975346896124,10.75002167228701,32.37562317400139
24.63106833,-6.772405466535797,6.415441130325863,34.97647411180203
24.64111433,-1.3762189367070974,13.86678667339555,36.701850903521965
24.65116033,-3.3001395763122656,11.81803246960714,35.40036681665388
24.66120633,-2.786406688737962,5.60228633783167,35.86092076590397
24.67125233,0.2624630112079229,8.21859355994178,37.515304546435694
24.68129833,0.9088372544478545,9.241156773799448,33.18297939754298
24.69134433,1.3432435494775519,6.4786177713904545,37.85223719386485
24.70139033,-0.31471770979680597,7.752645152700045,34.3711532933993
24.71143633,-0.07056934119331625,7.419434962338509,36.14697036846012
24.72148233,-0.19460384230078515,5.877784127731221,36.96847092339514
24.73152833,1.7458615685413639,7.374564781444467,38.431237225846175
24.74157433,0.445949006976537,7.327905195876338,35.86044716012313
24.75162033,-0.023954296725926215,3.392360552199784,34.56124232888218
24.76166733,3.831355020239869,9.209464821243014,38.125547202399694
24.77171333,3.2227398088933166,7.53328369866247,36.88397347811262
24.78175933,2.747885255936615,7.392245804566632,33.74907253496959
24.79180533,5.169507742309919,7.43521408244485,37.77322833881935
24.80185133,5.643709400154068,10.004163327222491,38.537698172000276
24.81189733,6.614379923003024,7.103293116484686,37.26308593682912
24.82194333,9.190332832989949,8.61318896722756,35.327336223965325
24.83198933,10.406709234582705,7.801918745089192,37.85121892478486
24.84203533,10.713843821809176,8.28564198517018,40.290042919705066
24.85208133,9.450180844042523,5.259519295512252,37.52564519383959
24.86212733,10.4740165418612,3.7693418844271633,33.7553824077755
24.87217333,14.126541878426474,4.328332856009884,36.280004396765975
24.88221933,12.806460621460928,6.436821064674795,34.95853237000615
24.89226533,9.887527532513563,1.8285732311873386,33.88271957435523
24.90231133,11.145010579228678,3.4962304033786227,33.33445720837921
24.91235733,13.748250880242168,3.1532351860106225,33.415824006288325
24.92240333,11.882984285530688,4.172891482268651,30.90238025642323
24.93244933,9.718385948296122,0.6023178986975755,32.222944974670575
24.94249533,14.644097967662127,4.862705846621141,33.472916763567994
24.95254133,12.473956693637197,8.045775202825995,32.10575971179929
24.96258833,13.686815972519824,1.224511578120087,33.27597085092234
24.97263433,16.477735821913917,2.982971078924211,31.626834337380572
24.98268033,14.016039158401819,4.684330063305639,30.09019557045125
24.99272633,17.809722939630383,2.428670284794107,31.443115844332517
25.00277233,14.807285592655878,1.845165105699222,25.362483453866524
25.01281833,15.620066012173453,3.1895461374595557,26.15618721712373
25.02286433,12.40113878961179,4.000381493673028,23.05674547189508
25.03291033,9.394067343536179,-1.3489774868351185,20.59582562811882
25.04295633,15.520922425146686,-5.146534423564775,23.26602821516401
25.05300233,12.838977282157108,-3.7883285516695477,21.539687490319185
25.06304833,3.8201061380197796,2.4113741725476765,17.249444362151404
25.07309433,9.545387506690506,1.7507741598484312,21.61062329922842
25.08314033,8.05814836838355,-0.11319989660827764,23.551256018515726
25.09318633,4.503074782358026,0.22865650433336387,19.158939514592767
25.10323233,6.202355269186345,5.757188805725722,19.470542842415497
25.11327833,6.2799777780329284,2.617304791288794,17.868716918782575
25.12332433,15.698342099293184,4.883750764062957,20.165008859959894
25.13337033,16.341422119290772,8.741027477782792,22.537870747058697
25.14341633,7.021368388403947,6.8572595335127255,17.82397676928298
25.15346333,9.273504176948821,3.410980137230774,14.15722719292979
25.16350933,10.497312761808567,3.664305977614395,14.336521682464857
25.17355533,4.539947136979796,3.806810189558309,11.21894335148892
25.18360133,8.544772840531195,2.4484802932342435,8.524423523054649
25.19364733,15.455618494202893,2.914195127545927,13.02493679477989
25.20369333,11.795478267410996,4.330141948690925,8.16804186103373
25.21373933,12.111498069896113,13.961967323439012,3.626292290464999
25.22378533,22.275793577731616,15.982011031959892,2.8865370137776987
25.23383133,22.19471806826531,12.95525659899307,6.483573149719887
25.24387733,-0.18340119546530834,9.48239622991552,5.881756122135062
25.25392333,2.0230513407257518,3.2265441349027038,7.69843707345698
25.26396933,3.6125410725019207,-2.944700778595407,9.40467883613241
25.27401533,-4.6447335449458995,1.621390633254667,3.7648735014368375
25.28406133,-2.1936012268907112,1.4683404959026962,-0.032401944513790006
25.29410733,6.437677952333007,4.1657947444077195,-1.287310977806283
25.30415333,0.8036668886567363,4.092863069358596,-2.4122097294343825
25.31419933,-0.5958982471852801,5.20913127520303,0.05214902192515873
25.32424533,-2.2046924519749536,5.500662612560871,1.7426195562282687
25.33429233,-4.32963287153928,7.570123715821313,2.606449727281075
25.34433833,-4.765037767999729,3.8648894122778756,-0.9957654593192524
25.35438433,-0.8145044276785162,6.140469009111417,-3.7121663184667653
25.36443033,2.0659929662104277,7.023003890354735,-6.205436164671739
25.37447633,-1.1478700577170817,4.967927286694298,-9.478539148465028
25.38452233,0.5681642784734282,6.756160007738295,-9.473833298418537
25.39456833,3.366738633020819,8.992142343891079,-2.9191940829566634
25.40461433,3.8082466096408782,10.072423026054166,-0.8951824027099324
25.41466033,2.513347925201046,6.264145666924613,-2.661372900179611
25.42470633,-0.5605929023588863,1.705313525013976,-7.445417231337767
25.43475233,9.362594420198628,5.225530247423763,-3.9888378219713405
