Time,Accel_x_cart,Accel_y_cart,Accel_z_cart
8.004723083,0.09399776138861518,-0.043989440393161224,9.829384270425672
8.014770083,0.15405678460376973,-0.0005755766251582719,9.833467732114807
8.024816083,0.09574208884239044,0.05035353404718682,9.84558495095997
8.034862083,0.09304946495435433,0.11932026322464943,9.898642009424602
8.044908083,-0.0338184987830067,0.14273206911943556,9.991998942840436
8.054954083,0.00638606683581656,0.07574559132390701,9.937416447297485
8.065001083,-0.009825279720386305,0.05757532881998551,9.894458504761698
8.075047083,-0.0009355996552180336,0.01362363655982872,9.871930814651986
8.085093083,-0.0067219235652661935,-0.014684001206260617,9.882728827671318
8.095139083,0.028141669654791174,-0.09372886793442284,9.866831583792841
8.105185083,-0.008437253879841117,-0.08046596988556243,9.83176148921687
8.115232083,0.07463750031363343,-0.08786473603389462,9.799173486748039
8.125278083,0.07011249154409183,-0.0896047797960931,9.81233333646144
8.135324083,0.01118527630197984,-0.05602958092775428,9.805983027351438
8.145370083,0.021475102516691064,-0.05092996365265596,9.79954931592127
8.155416083,-0.005818672665135666,-0.03853156324201169,9.818981594749422
8.165463083,0.0027468525666042736,-0.04683870722184274,9.805499171761287
8.175509083,0.005929492920630366,-0.059241340300409284,9.805624283371351
8.185555083,0.020371928304689327,-0.0578383473608292,9.777846780733423
8.195601083,-0.0026445962300844323,-0.04766312787200147,9.794791942994793
8.205647083,-0.01779929279909396,-0.04044505999862287,9.811775795075906
8.215694083,-0.05457781683265361,-0.012002931233807308,9.808425281844215
8.225740083,-0.07915021378747567,0.009182786754773277,9.797856139651646
8.235786083,-0.06941850792006211,-0.0068539042202677095,9.807618918963456
8.245832083,-0.06440284936688592,-0.0005101849103382277,9.813369307140732
8.255878083,-0.05822256178650596,0.007003593549034476,9.829704848806315
8.265925083,-0.06805120440777672,0.012464663456684481,9.825387442046488
8.275971083,-0.05667649579988253,0.004625213646740263,9.833794698103873
8.286017083,-0.06159925029638971,-0.00872324792355911,9.826596105856702
8.296063083,-0.05513013161843693,-0.0059694766718602745,9.815371838028927
8.306109083,-0.06547109196122711,0.032751702294085486,9.82162017597311
8.316156083,-0.08603385657225952,0.015325014062041956,9.83143531593776
8.326202083,-0.04587304459515972,-0.002373028918760168,9.845126229595708
8.336248083,-0.02322325532300943,-0.008238311417342912,9.824377491095483
8.346294083,-0.015266733166728724,-0.0260153791142527,9.82910268647068
8.356340083,0.0012583292165086828,-0.012781125085456651,9.824411519848937
8.366387083,0.00018401882025022016,-0.021043810651378378,9.839076387985983
8.376433083,0.026818733600771957,-0.0564795386818862,9.826110470927759
8.386479083,0.04240077569834162,-0.030373967366044672,9.812556151448913
8.396525083,0.003559876379150863,-0.012135252440526958,9.826717534592134
8.406571083,-0.0037792356440597423,-0.0063981559446919046,9.850270137250368
8.416618083,0.00493627809769256,-0.019959225261371713,9.821748439924768
8.426664083,0.025755812216287532,-0.05099714965526713,9.839818032023963
8.436710083,0.06779642786871269,-0.06356038564453831,9.792464704456346
8.446756083,0.0469209394290333,-0.044118268729786775,9.823052688119123
8.456802083,0.027972738371481124,-0.03916989452283694,9.824365307472094
8.466849083,-0.016893912299987813,-0.009359403117693812,9.875980360487095
8.476895583,-0.08378364138189298,0.014915606137210385,9.895092035336917
8.486941583,-0.0876301270767704,0.03510133539674064,9.857480335009578
8.496987583,-0.03499097795477873,0.020006948239981424,9.863437951710974
8.507033583,0.0240889708655262,-0.021657891834165506,9.860627597258926
8.517080583,-0.006994832035154844,-0.029198909787316426,9.904634427417413
8.527126583,0.11080911619109333,0.020054513735952982,9.783474917258083
8.537172583,0.007576028433556321,0.02227478779467601,9.829900676077303
8.547218583,-0.008144922567528976,0.019844235018711652,9.862804490613579
8.557264583,-0.021913619200357243,0.054075574439895,9.862106656030804
8.567311583,-0.03807700292497388,0.0674809315212507,9.865539876852399
8.577357583,-0.04115299273251311,0.07193133839841345,9.85086759099961
8.587403583,-0.02705351033520072,0.04972660254553417,9.851931291195882
8.597449583,0.0018422791586109031,0.026415527947882125,9.816814270188877
8.607495583,0.008212988438708563,0.006319875803618058,9.811814950112886
8.617542583,-0.0017209616936642996,0.006856392637213801,9.806054660152988
8.627588583,0.02266805210149244,-0.008116954201032419,9.802875167013124
8.637634583,0.029725837122916206,0.00010098332614208782,9.7917676235248
8.647680583,-0.014032852988601229,0.011060869389600178,9.81056203041342
8.657726583,-0.07356524296719584,-0.005913640895942371,9.819301136466006
8.667773583,-0.10663629005588442,0.027436497852489965,9.81517475023254
8.677819583,-0.09459287627581615,0.020150353330698825,9.825378215038675
8.687865583,-0.11239876377743503,0.010802493962834355,9.815595100823398
8.697911583,-0.10323580109974041,0.00559883137941439,9.805321136382057
8.707957583,-0.09178471064983898,-0.011005327419388708,9.811612961258872
8.718004583,-0.03893935075681858,-0.016737160234817534,9.798695749163436
8.728050583,-0.026829694640043564,-0.00679617174589519,9.808245033386955
8.738096583,-0.05605903922291848,0.0340186978751109,9.820172013407499
8.748142583,-0.02726163462192825,0.02495439494305948,9.823179743432444
8.758188583,0.0067103779092170576,0.015734368288010822,9.838596685730472
8.768235583,-0.012888522020785447,0.02433840821461193,9.842257959809395
8.778281583,0.013179234139083652,0.023954396839059384,9.832368739883313
8.788327583,0.02027477649103426,0.01180013381579929,9.844799388020629
8.798373583,0.01908366649742432,-0.010371711732746177,9.844502464325373
8.808419583,0.026009879936127904,-0.007456724301954428,9.856861861766035
8.818466583,0.05330133990174811,-0.026537113636376678,9.873839817175933
8.828512583,0.03361573453173929,-0.015618324286445627,9.889732183437893
8.838558583,0.03155901881275589,-0.013656769486422944,9.879014226223248
8.848604583,0.0581943204981125,-0.024522049638436627,9.860123485087232
8.858650583,0.017873789616293954,-0.015545274655402144,9.834168767323884
8.868697583,0.03597639335806081,-0.00039735551322114994,9.850105812073426
8.878743583,0.044436578991816224,-0.002486404680175415,9.861365541754639
8.888789583,0.015656934774637782,0.016034195857190278,9.841495695113597
8.898835583,0.024862865050652765,0.021967560504617338,9.831467198176968
8.908881583,0.03701367847624625,0.025743557469919177,9.849752759337468
8.918928583,0.008896067162784129,0.02216800082318524,9.841265707429912
8.928974583,0.007493759430803791,0.021573957705494938,9.855051710215516
8.939020583,-0.012144942460682349,0.03263100574767406,9.846602240177637
8.949066583,-0.01844031260497841,0.014381286310395047,9.848246896244039
8.959112583,-0.05007134399011169,0.013584234742891088,9.840997892324644
8.969159583,-0.04906791492292586,0.005771331342895317,9.843563569658103
8.979205583,-0.044271512893155465,-0.010828110106503955,9.824377622060558
8.989251583,-0.08189700487486755,0.008298941416667044,9.851583320045734
8.999297583,-0.08407718801970308,0.009906833446143392,9.847321530459075
9.009343583,-0.07722516700871072,0.024071262808588633,9.814184342631217
9.019390583,-0.09489476736367815,0.01463165841497695,9.824878887093698
9.029436583,-0.08097463266905064,0.02004244106194089,9.806474067913882
9.039482583,-0.02449163784295518,0.012091711947006182,9.82439193162748
9.049528583,-0.0679389649521179,0.02786965920034309,9.826191939795741
9.059574583,-0.04261226936336101,0.0041271603492833925,9.801954935672425
9.069620583,-0.004555498213836682,0.020220875308615827,9.77351794955826
9.079667583,-0.01231688638700267,0.04492081973308169,9.79940850284314
9.089713583,-0.034466037761249055,0.026347869311340893,9.810831124888615
9.099759583,-0.052985195894481925,0.025640352375620488,9.819858429803917
9.109805583,-0.036125222019025724,0.021736831547297178,9.862083880800245
9.119851583,-0.03605665085056273,0.0008284451782101825,9.85006121096474
9.129898583,-0.06141309262345578,0.01601486187239879,9.822507545081558
9.139944583,-0.04801820712120829,0.02051655938727251,9.842133095028442
9.149990583,-0.02480030328663467,-0.010078050173576306,9.879245187735698
9.160036583,-0.02709943491813793,-0.00849516220826441,9.8566644959838
9.170082583,-0.029969871952875038,0.049499719476797606,9.826294306384892
9.180129583,0.046060789025509224,-0.026329354081692697,9.850245066461248
9.190175583,-0.013949374829468647,0.024481808506841857,9.853789612191907
9.200221583,-0.004997803140404643,0.01938944020512785,9.815328217492947
9.210267583,0.05588192893031724,-0.06710919066716622,9.885590329510487
9.220313583,0.04083722308450364,0.04521947755004588,9.810194397456371
9.230360583,0.030967799809260066,-0.02529824820414906,9.852480082638358
9.240406583,-0.0030834356441101713,-0.012351018559171947,9.874729156441427
9.250452583,-0.003909117175461034,0.02981505752310324,9.801437838458806
9.260498583,-0.012516977839260004,-0.007432783550180568,9.853388984272854
9.270544583,-0.03993993112364878,0.014116158777081549,9.831931257890478
9.280591583,-0.025996233564221802,0.010047024174261674,9.831708271879979
9.290637583,-0.043387722334153014,-0.020467597337449232,9.850434931418565
9.300683583,-0.04231725046654367,-0.006498215989733278,9.843517723216774
9.310729583,-0.017103521816188003,-0.023995994381900247,9.825253011197724
9.320775583,0.004103672996185856,-0.02545327929244926,9.866645383536458
9.330822583,0.008029920865544863,-0.04143240087436691,9.843280556662911
9.340868583,-0.007042774021778956,-0.04451213137707124,9.858088312830546
9.350914583,0.007427524488047774,-0.006694679153790471,9.849440337381052
9.360960583,0.019215975716698325,-0.011708975873154944,9.861224707972664
9.371006583,0.019774623960884925,0.0020325429208178643,9.85988390430244
9.381053583,0.006402829529568004,0.0043246937682652805,9.848549440636933
9.391099583,-0.00864365564942628,0.0004682754702410389,9.841108862422345
9.401145583,-0.028179711513551097,-0.0023227213839007305,9.815374887415539
9.411191583,-0.061524925360937364,0.005033142198551345,9.799988002159132
9.421237583,-0.0668003105142343,0.0038474261889148756,9.788141042498577
9.431284583,-0.0741189272108427,0.008945654456037205,9.795172146382841
9.441330583,-0.04920494087540637,-0.020274778723581702,9.835070219167584
9.451376583,-0.06826374599352177,-0.0307864078699739,9.825253563670021
9.461422583,-0.06533617668870495,-0.06313474858907887,9.801191524884944
9.47146825,-0.041519461192012545,-0.03924055763614945,9.795161572958245
9.48151425,-0.05913501582982086,-0.0247802128654875,9.804091378002122
9.49156125,-0.03434002571906357,-0.030838069841532065,9.832422361229836
9.50160725,-0.01776462025023707,-0.0555764065912979,9.807492419177015
9.51165325,-0.027019871678866936,-0.05368483656355546,9.821870238419084
9.52169925,0.025525345726751678,-0.03889781536510029,9.838220262684157
9.53174525,0.07075833303931428,-0.034974110479759034,9.854963623980579
9.54179225,0.02175673215847798,0.01120730228760745,9.831303635672679
9.55183825,0.004414882608830694,0.002621995186608534,9.859242725848215
9.56188425,0.07895390604499834,-0.019751709276252468,9.906518121114583
9.57193025,0.04447629490473677,-0.038348478075339726,9.806521296469374
9.58197625,0.024656103247394135,0.011448190945314319,9.805530142395586
9.59202325,0.028407234574803066,0.013896997601513866,9.8839029371112
9.60206925,0.052744399469060545,-0.03818468793589236,9.890068364774404
9.61211525,0.04093937060992432,-0.038272809929478395,9.860998915436546
9.62216125,0.02820897507515285,-0.032647083841962445,9.809266996382991
9.63220725,0.055752071047856455,-0.048524795022128496,9.843949857816607
9.64225425,0.009535012693136894,-0.021465969833551146,9.838254124559336
9.65230025,0.004930667419009694,-0.028210625642249416,9.838661034363465
9.66234625,0.0217537707421364,-0.03145439420288938,9.864129962240948
9.67239225,-0.02577605229877848,-0.01676228273373316,9.821380630068486
9.68243825,-0.01741061429292063,-0.021959765793136275,9.816035723242733
9.69248525,-0.006335397040005932,-0.028985194947308134,9.852967062998218
9.70253125,-0.01794681899311953,-0.03203900379449164,9.805204864001446
9.71257725,-0.04883500993472975,-0.032949007249424865,9.800803119804158
9.72262325,-0.03782796778521074,-0.03200036544149844,9.82032942793947
9.73266925,-3.7679219936068957e-06,-0.0399004609576491,9.820559604841407
9.74271625,0.12228652085697558,-0.02935351263331097,9.923991392827576
9.75276225,-0.1538607117400451,-0.04879795699656839,9.716528718749077
9.76280825,0.14761532076061268,0.0045781507334476884,9.779669205590626
9.77285425,0.005448565256664844,-0.0019133878521955512,9.945600119670521
9.78290025,-0.1245865833499233,-0.02544967041313006,9.785466506450742
9.79294625,0.021761549237463734,-0.022192752751755637,9.774202339420327
9.80299325,-0.009740547733570772,-0.05211473579176044,9.911230065906768
9.81303925,-0.08942666779481953,-0.09910142458761122,9.864373149746253
9.82308525,0.03593512136993672,-0.036647735368170044,9.787949461986994
9.83313125,-0.020512105364028484,-0.021151165613712712,9.87133621100668
9.84317725,-0.051248677280477314,-0.05491138834529136,9.832657358065388
9.85322425,-0.020533429995811973,-0.01750115531053158,9.756037432639982
9.86327025,-0.015321342514343327,-0.010476102651133386,9.860632175250768
9.87331625,-0.006722716530318243,0.009437317676816269,9.867340981022789
9.88336225,-0.013141230056799378,0.003561879545419724,9.796144306295751
9.89340825,0.02380922105946702,-0.04547417856846183,9.868811553720633
9.90345525,0.02263840912240903,-0.021751377101513095,9.86555275615417
9.91350125,-0.032066075294534716,-0.04270222782563355,9.807111646832112
9.92354725,0.004322019010263602,-0.15929709414022472,9.833669189207384
9.93359325,0.12702259130264418,-0.03255475728240747,9.984357167762674
9.94363925,-0.06451192917964446,-0.1530515256437013,9.76552350935236
9.95368625,0.1311441707720816,0.0033325070542160095,9.72082244013263
9.96373225,0.005735887026072882,0.029857439726869054,9.758130609553353
9.97377825,0.052334051636019556,0.02436348896537331,9.918690755987678
9.98382425,-0.06863605738099948,-0.07259382027512748,9.998209947602506
9.99387025,-0.0722358873185239,0.030349783607599136,9.678710480036603
10.00391725,-0.015731858140199104,-0.008029369986205633,9.736671446350076
10.01396325,0.03803776339558734,-0.1374444301717656,10.037628448362138
10.02400925,-0.04807492887295437,0.11910625897242341,9.80044155414269
10.03405525,-0.03314834481945302,0.011976721330948431,9.771283450276677
10.04410125,0.1372662949431501,-0.09378667740531661,9.934201553780628
10.05414725,-0.23663932619542982,-0.003310962474927755,9.602126991341189
10.06419425,0.09056591910822501,-0.05279055636985127,9.947039965606201
10.07424025,-0.029930123782077475,-0.010664760923011347,9.931413779367796
10.08428625,-0.06864213666847326,-0.0055917805726661005,9.571774163872988
10.09433225,0.005187887332929152,-0.03628479408963891,9.873518140340078
10.10437825,-0.039654663507180936,0.0014900115399779283,9.86512839749209
10.11442525,-0.03564917104991783,-0.02964819194668801,9.859492751326277
10.12447125,-0.010103121883930855,0.006823089407811093,9.814179590248692
10.13451725,0.010424522562437663,0.07374772310916253,9.757064641147535
10.14456325,-0.028213343205947854,0.00485153737928908,9.887011283696546
10.15460925,-0.03362474125869326,-0.0009185183198985841,9.818824561693894
10.16465625,-0.002488279311513731,-0.025273106024995752,9.807391623506089
10.17470225,0.004338833136030667,0.024697066335216806,9.893811564649496
10.18474825,-0.03404080607774751,-0.02552131921869044,9.870232125024387
10.19479425,0.019538801826268912,-0.09968192769583688,9.787263053653657
10.20484025,0.09436152020699509,0.004291789619215607,9.837461714750265
10.21488725,-0.032246368773611325,-0.013228043739663893,9.930137981509262
10.22493325,-0.02719615466648245,0.04630763172085559,9.814421265870411
10.23497925,0.04788931249300362,0.1755672726688014,9.730805457561418
10.24502525,-0.02458235474485631,0.0769842963671975,9.709780930233986
10.25507125,0.011071673558041438,0.08090856331192062,9.96275397151438
10.26511725,-0.0651788760683224,0.08996174570237488,9.914198021135293
10.27516425,0.031615744023529124,0.11053799238165173,9.807788268866744
10.28521025,0.04865116941964485,0.12844149855590115,9.875664714148337
10.29525625,0.001416611150237377,0.2186902964947553,9.805038851781191
10.30530225,-0.012095726364741027,0.21703293715790622,9.836830002959928
10.31534825,0.04354157227316522,0.2831683595213411,9.851692809047176
10.32539525,0.03697663241685919,0.4203689738961684,9.762604668554483
10.33544125,0.024891572462899827,0.44715389329397837,9.804141697850037
10.34548725,0.007463782741645063,0.5354576775643525,9.829823143349053
10.35553325,-0.017698320953551026,0.6226145630078634,9.79584635855845
10.36557925,0.006350627726122504,0.6143612799257663,9.926694831038834
10.37562625,-0.03824075963934974,0.7056441003111247,9.878075525581892
10.38567225,0.008174338024137287,0.7612961419475502,9.802635629681323
10.39571825,0.02926100822813692,0.8115755071317902,9.815324119341248
10.40576425,0.05714492066614811,0.9075952621356609,9.864753210050598
10.41581025,0.027044996051391452,0.9523146902274233,9.882810881499797
10.42585625,-0.021178924356763024,0.9594590423983756,9.794250622880886
10.43590325,0.013888154672654173,0.9487992468117794,9.835885867957197
10.44594925,0.013017731604786245,0.9193741050283321,9.93937514059084
10.45599525,-0.008796097145650378,0.9138160003301666,9.858031874709155
10.46604125,0.024853386634845803,0.881205392301015,9.798274572222468
10.47608746,0.019612693065245688,0.8544558040766053,9.86274909609116
10.48613446,0.010473572645123799,0.8156878377656114,9.861663708311516
10.49618046,0.018867594012626665,0.767814214577704,9.789883270812727
10.50622646,0.0559918175656718,0.7134489992219255,9.774614983236305
10.51627246,0.03922762125777174,0.7720582541493741,9.836087263543002
10.52631846,0.01130720776932938,0.8032333038208885,9.860209676727889
10.53636546,0.01675464577237352,0.8252897713723604,9.846248035040706
10.54641146,0.042353561933554544,0.9152860441750073,9.86582348114283
10.55645746,0.09165944007456397,1.0389682570971437,9.76947656727686
10.56650346,0.021336311532497525,1.0748413346791703,9.865145056307517
10.57654946,0.03742887315851664,1.1170824599058224,9.833507847881812
10.58659646,0.0461650153532095,1.2676056183362374,9.826524761837106
10.59664246,0.005013445574435842,1.310369226824755,9.835894579591104
10.60668846,5.9298113132124586e-05,1.3787941361226532,9.871893793536717
10.61673446,0.0075134015076580496,1.4161732340943087,9.826227184445491
10.62678046,0.03408207339053551,1.4266367530663382,9.845988964328964
10.63682646,0.038129803039489124,1.4753334732263093,9.88502676055874
10.64687346,0.009449901480094338,1.4703238859807373,9.869366056007088
10.65691946,0.02411050173624057,1.451358852824902,9.837601487054572
10.66696546,0.049047693136189494,1.4329504233460713,9.825629296865813
10.67701146,0.021348070158968963,1.4348156628957869,9.832612340552588
10.68705746,0.0036409954014826993,1.4289556884491372,9.789694452810416
10.69710446,0.024083572947057406,1.3409983882794392,9.803130896675297
10.70715046,0.021894246130507763,1.3507181218305895,9.848249414212818
10.71719646,-0.0042718620389636825,1.4070290404749914,9.814056587795351
10.72724246,0.006724767100318905,1.3314044924558481,9.746958789323523
10.73728846,0.006071453341201524,1.3300055642338064,9.813216965695368
10.74733546,-0.04827123588136304,1.3099246138556264,9.84913757593012
10.75738146,-0.018120864781824945,1.2932646861275219,9.82626437332923
10.76742746,0.004898809198009217,1.2798020833798915,9.806560675527997
10.77747346,-0.00497884182830148,1.2835294075857735,9.801905195272479
10.78751946,-0.02247640305931215,1.3203073773167544,9.808555882073858
10.79756546,-0.029482285068990994,1.2936992241070957,9.81609152204814
10.80761246,0.0021494200155129095,1.2794005554392602,9.843139193859422
10.81765846,0.013523450941263636,1.2739747751144488,9.835144008987278
10.82770446,0.021933463609725038,1.2064954800444019,9.872559360637496
10.83775046,0.004731456559915568,1.1909852989103735,9.86169551761311
10.84779646,0.005969564786735242,1.194259171067495,9.781787958346827
10.85784346,0.050785372793863075,1.197737085611207,9.787815405742673
10.86788946,0.027361108870313382,1.1683767934846547,9.921277141980461
10.87793546,0.05541537517438233,1.1562111701788211,9.89998116921581
10.88798146,0.04969105350009061,1.1045316760671369,9.794210457044308
10.89802746,0.08356752288325893,1.060665472727852,9.876262279203225
10.90807446,0.04424283667006286,1.112856430015969,9.92499491843159
10.91812046,0.043775587470543324,1.0503989528686275,9.906390634515976
10.92816646,0.054684208978068624,1.0394029271712946,9.861293280899407
10.93821246,0.00479677007618799,1.0799887863553574,9.791434034391617
10.94825846,0.038659709213762994,1.127640123973518,9.833049275256496
10.95830446,0.038964179549247295,1.0760379472686936,9.883499751305393
10.96835146,0.028406547411329298,1.0086625809200085,9.819696544765849
10.97839746,0.021515197470750085,1.0392211343200002,9.724320186028157
10.98844346,-0.018484102372307652,1.0646073217159002,9.833036735933522
10.99848946,0.026348132897547883,1.0136211169440625,9.929838007064177
11.00853546,0.038857455259596545,0.9776712729894153,9.910259289344728
11.01858246,-0.008626489851992233,1.0346099519963554,9.809636517859603
11.02862846,0.012660945487195438,1.0172618658985086,9.774572659738688
11.03867446,-0.045766158597239315,0.921790203156194,9.851861474929468
11.04872046,-0.04087387283547792,0.9653163694502427,9.838428749772689
11.05876646,-0.03161766987452917,1.029384355871782,9.799184265239848
11.06881346,-0.13142697274292575,0.9934028941698484,9.719990294607182
11.07885946,-0.08451191005952682,1.0052284565018756,9.694255652841912
11.08890546,0.008235081552140613,1.0680160090650075,9.836662801805499
11.09895146,-0.11075936072509285,1.0695037376240883,9.938974110831133
11.10899746,-0.07833581574776106,1.0821035214665953,9.940152751136328
11.11904346,-0.01726223286281804,1.080279836936167,9.867819696953891
11.12909046,0.03391601029251344,1.0410050266426667,9.82299644492128
11.13913646,-0.010907200060800752,0.9981315544323889,9.730189004136571
11.14918246,-0.004821324050539501,0.9843366898860766,9.858377894229246
11.15922846,0.011864553270541508,0.98847227918697,9.906695406124209
11.16927446,0.02620728518769352,0.9589010754293231,9.840613591945505
11.17932146,0.04624641357689159,0.923785684003738,9.831422387088914
11.18936746,0.01863591938544882,1.0072967373769361,9.788796312944356
11.19941346,0.0023146259151882232,1.0207252863171992,9.83759449679249
11.20945946,0.002980374155710204,0.954339721019542,9.788184037684683
11.21950546,0.032168080445313996,1.0291433735229927,9.750456393325072
11.22955146,-0.048830106610590646,0.9792702180368735,9.859441114270306
11.23959846,-0.0028017924557691173,1.052919958677891,9.91455974777523
11.24964446,-0.038173385672640676,1.1445269799820301,9.905470224072985
11.25969046,-0.02554822914695165,0.9268053319260664,9.849319040757095
11.26973646,-0.008444071201399108,0.8605127826196479,9.818182141903598
11.27978246,-0.09131524874088069,1.0198757123150084,9.826704854519631
11.28982946,-0.07487270521298556,1.0535228240944798,9.848346813262669
11.29987546,0.014481932960604146,0.9308133287566548,9.903635507601129
11.30992146,0.007850237506546518,0.9148106280148883,9.659102952720456
11.31996746,-0.05146616375560187,1.0155495847633214,9.594388691828836
11.33001346,0.010487287369449505,1.025407596772354,9.84114246383554
11.34005946,0.036869458419002424,1.0454787574076814,9.94522894165623
11.35010646,-0.043542348229744884,1.0160093295778923,9.838250479361928
11.36015246,-0.11719281621058206,1.1258380117047142,9.68012212377184
11.37019846,-0.003914440785428246,1.171960260949012,9.793746065638874
11.38024446,0.011395812602194773,0.9361843606409199,9.9910535842951
11.39029046,-0.04131270906497885,0.8086915903617907,9.936274667385474
11.40033746,-0.10064505928274052,0.8654238896663042,9.721737979936263
11.41038346,-0.03211071890510814,1.3236524523525708,9.979374857638858
11.42042946,0.05559152851520284,1.3983871942525385,9.98550618353162
11.43047546,-0.04874021383238244,0.5587843068091856,9.479498106673232
11.44052146,-0.057337949868303144,0.5640596291808163,9.256419840119172
11.45056746,-0.22071540584086,2.0661741759773617,10.136821705529561
11.46061446,-0.012919142924067435,0.951208717348165,10.31560676066032
11.47066046,0.5138552906303321,0.46819205409966635,10.454121628655521
11.48070596,-0.4097001542862965,1.090663039608737,9.072822967076785
11.49075196,-0.30323225644317375,1.7977729509579128,9.303462179035638
11.50079796,0.6207029519517682,1.3840753234960845,10.918923215784478
11.51084496,0.2658666650291439,1.3492208274747812,10.467530545120818
11.52089096,-0.7018508089743546,1.0838195462392846,9.411215667762821
11.53093696,0.017075798077807687,-0.018256841238944607,8.93148200642186
11.54098296,0.10053550711385467,-0.2944879588097108,9.659148657027815
11.55102896,-0.4668218553506616,-0.27489847716062144,9.091237981478228
11.56107496,0.16722210564691292,0.06289260448926348,9.464608521174034
11.57112196,0.10318524794500858,-0.34800361457980566,10.758900734587643
11.58116796,-0.5812170292414003,0.5968696387725444,10.29189195700828
11.59121396,-0.4413493303612388,1.2807449222808545,9.568954746257475
11.60125996,0.4152230222772834,0.889839092999317,10.139108172248259
11.61130596,0.023149798401391457,0.6722634778296296,10.108843507694969
11.62135296,-0.6278151746973283,0.3635187609286427,9.412843259470202
11.63139896,0.15047229083041228,0.5748732656258688,9.419787306093326
11.64144496,0.41741273306983456,0.8181893577667281,9.47490029837815
11.65149096,0.30466644640601953,0.6872759869531866,9.977403941569033
11.66153696,-0.05263759978773712,0.5794092792451346,10.50014019645768
11.67158296,-0.24321736920880618,0.7565637669645827,9.960885135081107
11.68162996,-0.039610176785632945,0.739001361634096,9.409759797797513
11.69167596,0.28184233160260624,0.7669316070738312,9.691263038968383
11.70172196,0.032763350582847794,1.1356077830587872,10.14484831895031
11.71176796,-0.4127507027274741,0.9856337826098869,9.883661076614928
11.72181396,-0.025655837283731088,0.6456712929710696,9.680176247643876
11.73186096,0.12225297168420611,0.8148734448066889,9.730224129429821
11.74190696,0.03514619312396834,0.9106476270934145,9.778689576552745
11.75195296,0.15241531239362419,0.6044230580990985,9.814880185750331
11.76199896,-0.03246907265406356,0.6707617412250699,9.840984275944727
11.77204496,-0.17125931014224685,0.7878236218752694,9.955383317575855
11.78209096,0.11728074604560372,0.940121887326151,10.06445413979864
11.79213796,0.07220587713370936,1.0289798372340615,9.848138259048108
11.80218396,-0.020990563741301285,1.099522158759359,9.659057022810227
11.81222996,-0.07902729509550871,0.9005414535808716,9.407445193497677
11.82227596,0.010693706863714006,0.7772188200968808,9.664704403042382
11.83232196,-0.10294755540584019,0.9119215886642137,10.124479872751325
11.84236896,-0.028508651675478464,0.9476258036543915,10.01469604673745
11.85241496,0.15891925413753102,0.8950753199689342,9.8511334960698
11.86246096,-0.1272006410269324,0.9790075349966916,9.629700920773006
11.87250696,-0.28520822992858064,0.756777432905854,9.986470046700362
11.88255296,-0.1661988922673894,0.10141835442619447,10.879624029645063
11.89259896,0.08791705226246527,0.6649698536140899,10.120092138880134
11.90264596,0.022714389434252334,1.0992866386684792,8.84550298029486
11.91269196,0.12672269943713665,1.0575070464938778,9.113824856372524
11.92273796,-0.11226843257894746,1.4541591330582928,9.510399708439136
11.93278396,-0.09112164952540057,1.2459625688422225,10.021097195456154
11.94282996,0.1527594355061055,0.7950477103566949,10.578651788997547
11.95287596,-0.008784567880555668,0.9776683904268464,9.881061512782333
11.96292296,0.030623543010056056,0.6772071671148193,9.694333575199654
11.97296896,0.099737997379233,0.6638928298879563,9.572387392063966
11.98301496,0.03738657691016795,1.0301302855609313,9.48259506354898
11.99306096,0.13123231447678357,0.8673913919164881,10.023620437396952
12.00310696,0.14081212506719587,1.1183426738329185,10.007417786560984
12.01315396,-0.19411260203819447,1.352885663470469,9.63990870248039
12.02319996,-0.07820751661128736,0.9667073606042805,9.595862396409572
12.03324596,0.37590931025981067,0.7753333573120469,9.766619953007718
12.04329196,-0.11842304811610493,0.9953129237606162,10.02310537807898
12.05333796,-0.17339028350002697,0.8495932579091272,10.358648432501587
12.06338396,0.15646934997380996,0.6433083222200389,9.872288128235656
12.07343096,0.14257313834907254,0.40339877615844877,9.132063555983523
12.08347696,0.0043819399064084635,0.4099025878413103,9.288050159374247
12.09352296,-0.090436072577023,0.2364209343694098,9.823446216131247
12.10356896,-0.009008124510870201,-0.39470814937603255,9.769468299072216
12.11361496,0.08172062431972937,-0.23999775152946168,9.675128002930705
12.12366096,-0.10667656911920229,0.12434164784669074,9.32405697346058
12.13370796,0.04965868627094629,0.06284732369023777,9.809780165252466
12.14375396,0.04721285781413591,-0.3960856304152909,10.981158239136104
12.15379996,-0.36248303820457817,-0.6206438607811909,10.410098561220028
12.16384596,0.3147626202760991,-0.06333347033093792,9.35204110265962
12.17389196,0.34071209138568437,0.5309687450944706,9.20571869624271
12.18393896,0.0051023406179047815,0.6603402454707175,9.245660408076201
12.19398496,0.19621980568917413,0.33341375066315154,9.774413511879086
12.20403096,-0.0445926054275073,0.07798210604792938,9.970910741902667
12.21407696,-0.06278012174214265,-0.1391400225132178,9.686528766790088
12.22412296,0.46620509881304706,-0.32916768904170807,10.05817162895835
12.23416896,0.1353698916254773,-0.04334955732299979,9.635036754078602
12.24421596,0.17012207078091174,0.14909236881103624,9.811620198119613
12.25426196,0.2987851075543486,0.11788449848205207,10.761879283233785
12.26430796,-0.11495161503032861,0.0999184550957679,10.272485507022246
12.27435396,0.23507944049036708,0.009862618149636362,9.190115693292135
12.28439996,0.43125743831289215,0.09698011953042993,9.074522966518188
12.29444596,0.22393328489425895,0.007552442688636419,9.445086323739663
12.30449296,0.1639828537764635,0.2263349647035472,9.793042301587334
12.31453896,-0.07325105540430644,0.3946183863403131,9.877245725884658
12.32458496,0.1311017922737662,-0.10630530447072102,10.07642840283345
12.33463096,0.22946501608535347,-0.17519162154018872,9.986134760675878
12.34467696,-0.04611994928603756,-0.07251536581103914,9.726755186838265
12.35472396,0.11167252854521226,-0.09849932053649144,9.817834791587382
12.36476996,0.19071311908059044,0.4107086861607601,9.470733037941883
12.37481596,-0.05524067895925195,0.5461103484837511,9.290744317649644
12.38486196,0.16882452021400185,0.2220515637680212,9.65184955286107
12.39490796,0.24488811024036347,0.1765570304185842,9.555554406140274
12.40495396,-0.014978983498671878,-0.039447878953554866,9.531613788479426
12.41500096,0.3291677175260868,-0.25411966412885917,10.100717068449235
12.42504696,0.41173293726625254,0.21489503169934152,9.969996427666814
12.43509296,0.04104615229868994,0.44791346249558345,9.576714205871948
12.44513896,0.20717464478111308,0.16403025352575545,9.733628135705764
12.45518496,0.29623988239248933,0.3309147837174829,9.439129977268378
12.46523096,0.13617558744135524,0.314437104572837,9.388445496979351
12.47527833,0.16449882863327872,0.004778013710908556,9.787555533056173
12.48532433,0.2767833460044584,0.12219674808540588,9.764003189048383
12.49537033,0.2846337760102841,0.3204088655054866,9.888628800125383
12.50541633,0.24219094865496177,0.3517751888562999,10.021834672882523
12.51546233,0.2813215444154628,0.14076403092593948,9.756962801859466
12.52550833,0.42390869365597394,0.009368700277679698,9.628005476353273
12.53555533,0.39566082106488193,0.24424662019089569,9.61602897626111
12.54560133,0.36005821805126687,0.2958641304496805,9.655397349877195
12.55564733,0.4592720329765184,0.25611782243108233,9.559889842583646
12.56569333,0.48141872555012705,0.2946806608100546,9.260643423660412
12.57573933,0.5164997888066307,0.144159814092449,9.645788095834874
12.58578633,0.49323291818912285,0.08100981855051381,10.173594071571173
12.59583233,0.3410819910768167,0.21504007929148497,10.18261718688709
12.60587833,0.17916832595383467,-0.07395384873385719,10.227682322317582
12.61592433,0.2850834742368549,-0.014180937899054296,9.841022743037229
12.62597033,0.26561593579251025,0.32635458380693816,9.668366955732889
12.63601633,0.11441309750407855,0.3369477345619114,10.531858978053073
12.64606333,-0.17417413262807335,0.4270654240896266,9.437030458216524
12.65610933,0.10765888896270903,-0.43167181163373525,8.55996313038625
12.66615533,0.6343285744009478,-0.6278809387886652,9.10411391354494
12.67620133,0.5885691667963422,0.3670154438939609,9.067147934077655
12.68624733,0.30563663452944717,0.2594767387805396,9.728625656865278
12.69629333,0.25948525615916995,0.28657832381260007,10.16308094331868
12.70634033,0.5751288447142543,0.540319682337102,9.62438126372358
12.71638633,0.5255100934459334,0.1092509221236387,9.815649728291977
12.72643233,0.5972535608826276,0.07116933285079337,10.002819141018112
12.73647833,0.6243084392809505,0.32851776750597883,9.551055366017824
12.74652433,0.5476733567459081,0.41370352447769976,9.470106766961923
12.75657033,0.6432853331123793,0.3853051332603671,9.937268259661204
12.76661733,0.6349150852554619,0.23863259615765686,9.884714113040205
12.77666333,0.5389910504395568,0.24451685111107463,9.622878472480583
12.78670933,0.5267712064450573,0.09131107743182913,9.784774817674819
12.79675533,0.30363722078459615,0.15043394690842574,9.83121769478075
12.80680133,0.44717176747117326,0.11596184651757105,9.4515228752757
12.81684733,0.5869095582980504,-0.16867715776947506,9.28565779413599
12.82689433,0.5636383744309142,0.07805096311635999,9.218396993763518
12.83694033,0.5819245835665902,0.3471759131765562,9.642213658270059
12.84698633,0.3576588184402288,0.06699606892859,9.921463952657973
12.85703233,0.6034671047715119,-0.004186318798842651,9.4787023321527
12.86707833,0.7873608515249125,0.5054395346416979,9.557906982526191
12.87712433,0.49780789974622663,1.560497012887825,10.468902739698118
12.88717133,-0.5121723057659178,0.6126496357959593,9.993170113597412
12.89721733,0.6420435620460171,0.08595883201845336,9.514892425718312
12.90726333,0.46234701601270556,-0.3374791984860311,8.573102179762417
12.91730933,0.5419555742150184,-0.8049045241218142,8.889929845637724
12.92735533,1.0192366435605864,-0.43579063599170687,9.841878228510758
12.93740133,0.5142813318427791,0.360379086103132,9.685139880283435
12.94744833,0.2165328711180653,0.16849275350590148,9.783616873966634
12.95749433,0.8313552832312606,0.05927531064967693,9.578607489011542
12.96754033,0.9008029201371434,0.3986535902545559,9.164928313518772
12.97758633,0.4839294713609377,0.18275484636188988,9.620718736068717
12.98763233,0.6354099264928648,0.03689493276872624,9.970396407111112
12.99767833,0.7365606082748667,0.1824851580781887,9.859834451357184
13.00772533,0.5769202279812256,0.31104778905609975,9.722622142618464
13.01777133,0.7435084318778508,0.0012319577704723807,9.591587409165896
13.02781733,0.8072340114037303,-0.13792286023827383,9.189488505780385
13.03786333,0.7189876006229693,-0.043950683562489504,9.236790783306063
13.04790933,0.84467405462869,0.04541024331664638,9.556831837321674
13.05795533,0.8743054452965766,0.18337249101327519,9.792587023419472
13.06800233,0.6773410996882744,0.25303041825559974,10.08771181842912
13.07804833,0.7095247561879814,0.06997114762895976,10.011591300649659
13.08809433,0.8718642221621662,-0.10165900061588777,9.575068768535806
13.09814033,0.7678305295349392,-0.10665615142069415,9.013623130439328
13.10818633,0.7265805619904866,-0.10440838979349087,8.851479709319207
13.11823233,0.588331721167653,-0.13502781951096363,9.026542391409151
13.12827933,0.5326321345071472,0.05250445365180282,9.641040827550894
13.13832533,0.35782192517571004,-0.3304597077577782,10.101224447989257
13.14837133,0.44013537769039407,-0.6292580759257941,9.523386113019464
13.15841733,0.83577295956036,-0.26862170928920936,9.071370267456471
13.16846333,0.7656538318857111,0.0801109304249541,9.162878897655789
13.17850933,0.7816580970955325,0.14369771497912878,9.346874817317477
13.18855633,0.8110240833669009,-0.1078660807276211,9.62775418930868
13.19860233,0.9824232400729228,-0.2585248881040202,9.893562318205246
13.20864833,1.2124154248132313,-0.1337110819311048,9.792621898679654
13.21869433,0.924456363373285,0.06916204575562805,9.565691049248358
13.22874033,0.9489557288292448,-0.05596343783937936,9.66247295987381
13.23878633,1.2632833919433282,-0.022203790125666922,9.665872248659447
13.24883333,0.8659750190063293,-0.2202149112348256,9.194307736388737
13.25887933,1.046538907511005,-0.4203276815900303,9.256834081619202
13.26892533,1.460106169731902,-0.31366013692026307,9.59094103313193
13.27897133,1.3491351919601149,-0.26672679768547275,9.774000104713306
13.28901733,1.078503260086759,-0.33543100170141027,9.836884516338941
13.29906333,0.6148957488326354,0.13497777941926406,9.809568580951398
13.30910933,1.7515846009732454,0.19381306028735956,8.910245386468771
13.31915633,0.9464987449258859,-0.5041550956459786,9.438352363492843
13.32920233,1.1582778247868117,-0.7641798017458088,9.739403653518742
13.33924833,1.0010769084072946,-0.5506131681857861,9.280946037095685
13.34929433,1.2100253328017765,-0.36381054170675603,9.329785354219775
13.35934033,1.1446717237445116,-0.0653506580808733,9.48967548463093
13.36938633,0.8725286943228477,-0.33221153187281766,9.028243591166133
13.37943333,1.2131808912464588,-0.32340976978742814,8.913756370829013
13.38947933,1.4362704037502978,-0.07532707814153047,9.233539939949303
13.39952533,1.6461324161609845,-0.28242939128698563,10.016435550900196
13.40957133,1.1844297415073217,-0.6488009683696142,10.043941999487002
13.41961733,1.0272177529039508,-0.3800726018315261,9.60523344312689
13.42966333,2.0689967811378387,-0.5978916507429554,9.45875901727246
13.43971033,1.520387356669121,-0.5297747450023853,9.567427748940755
13.44975633,1.1795087694939017,-0.4385821793182531,9.002142978351937
13.45980233,1.5242122392093398,-0.48096980537093337,9.136019335171682
13.46984833,1.361195627945172,-0.4632649843146126,9.85260163258097
13.47989488,0.9585669885517907,-0.23694871876978904,9.454280813746436
13.48994088,0.962427807173749,-0.3552449286042275,9.238876046212766
13.49998787,1.2025117683150022,-0.5337232195147161,9.48969546172339
13.51003388,0.9954088353228198,-0.5596954134830493,9.231049220542245
13.52007988,1.0972665728821376,-0.6391137431687783,8.994245257706588
13.53012588,1.5333319749981573,-0.48624075364966013,9.190696729691489
13.54017188,1.8064434385493782,-0.3861518119775299,9.48078787616398
13.55021788,1.7649431414765067,-0.6189820972037833,9.68309974817051
13.56026388,2.2504125521964684,-0.49815116169938234,10.034705335800124
13.57031088,0.8766888323443519,-0.3990951322918418,10.111627699781476
13.58035688,0.5971386134082924,-0.28193401832901716,9.90311401442613
13.59040287,3.4013710116684206,-0.9766313340873676,9.64500245831288
13.60044887,2.259689080645076,-0.36344276703809736,9.073241223018766
13.61049487,1.5173782657046901,-0.9537178995695356,9.679871358640119
13.62054088,1.9578937636545963,-0.9594274628070639,9.900214756359333
13.63058788,1.7884792649566557,-0.4542184411396089,9.065669449282453
13.64063388,1.1722036246037133,-0.6472972228803568,9.197330403889124
13.65067988,1.2608551113614743,-0.8498451392001487,9.154997509778404
13.66072588,1.6592493288219654,-0.7892988314191512,9.165674733838362
13.67077188,1.5946799205260205,-0.7574814636749116,9.74682185462336
13.68081788,1.7413714567122476,-0.5074486164289096,9.864717516281727
13.69086487,2.1403110580283755,-0.48652369475265617,9.96810743733363
13.70091087,2.0670925311580213,-0.8717878310258425,9.776621675796196
13.71095688,2.1867304930193674,-0.9229945392735954,10.178553489474286
13.72100288,1.7654481340328672,-0.6463961623538443,10.3658969700072
13.73104888,1.7430178785012507,-0.33159366348364244,9.767875066023016
13.74109488,2.3710326344707213,-0.8317985893543044,8.877474462442965
13.75114088,1.7892675944989809,-0.892676560643355,9.042134809440585
13.76118788,1.9176945912201628,-0.9925980849607315,9.691579336038085
13.77123388,1.6819629600653518,-0.6886449829993272,9.462041184316218
13.78127988,1.8501407015652294,-0.5398483230281589,9.993812166860836
13.79132588,1.8052338643486827,-0.8250320852999571,10.460817626096024
13.80137187,1.8441643168669688,-0.6949160260912549,9.24795420495644
13.81141787,1.8252183702691414,-1.631926233899494,9.449545552256204
13.82146488,3.021608986000175,-0.8744457069518462,10.35012888648596
13.83151088,2.1132713431133956,-0.40046891498279147,8.827175008974628
13.84155688,1.7009627579852378,-1.8598426059160011,10.368528121228456
13.85160288,2.987736729841459,-0.7103934364591779,10.717414231426595
13.86164888,2.499147870592759,-0.5078562080547102,8.837484496630235
13.87169488,1.7277590125712896,-1.5347139441289346,10.125617377715264
13.88174088,2.716015466297334,-0.4235044215906799,10.34774570247449
13.89178788,1.6542484347536315,-0.4964714565840488,9.682843738319509
13.90183387,1.0488252845089667,-1.8485983120764353,9.959346904778968
13.91187987,2.2571969110616648,-0.6409944297871115,8.948273246968975
13.92192588,1.778936658661739,-0.7916887458781486,9.415322133681853
13.93197188,1.2785618352525558,-1.3897799705790037,8.783262873840338
13.94201788,1.8024374666056386,-0.9758659556277435,9.50447384354479
13.95206488,3.0485822469989423,-0.6634376022227861,10.97624044436084
13.96211088,1.653771535454789,-2.060685277334446,11.823029219969746
13.97215688,2.8036100494609473,-0.6022028659220666,9.70845316955275
13.98220288,2.8634991673634516,-0.23328355327861056,8.809815183858607
13.99224888,1.259395830736166,-1.559875578046419,11.94662056342893
14.00229487,3.2684572743651885,-0.12603837162590012,9.328930248689343
14.01234188,2.2890511875349837,-0.3989672864437968,8.371974392938625
14.02238788,2.35097292832057,-2.0871830428224114,12.34486854845803
14.03243388,2.3865055971066638,-0.17354031376024148,9.277929181496551
14.04247988,1.8179546070148032,-1.6712696999918546,8.980264605773815
14.05252588,2.7202121378284954,-1.4512403970645342,11.017966849751826
14.06257188,1.660118951471482,-0.028848586271320597,8.401690555694461
14.07261788,2.7640572042319245,-1.9158382316450708,10.84054896085642
14.08266488,2.505263532457354,-1.5791935096136913,12.25921039229047
14.09271088,2.267199400947831,-0.49440795847637103,9.494757267555867
14.10275687,2.53744338535521,-0.9596795198391056,9.69912757979241
14.11280287,2.8383096805877748,-0.8441817134774885,10.777618168374675
14.12284888,2.3415564197308876,-0.8288825491012628,10.096151399392719
14.13289488,1.6786104811211908,-0.7214646393618532,9.504991163072251
14.14294088,2.118553150624569,-1.2306651159130908,10.27861082945394
14.15298788,2.5815007263444607,-1.1281681284986942,11.622341276481759
14.16303388,2.020490835108414,-1.0408385753489913,10.845057956937936
14.17307988,1.4254721926470746,-1.2971772815774323,9.702420679843492
14.18312588,2.3651673774090747,0.27662192551262055,8.799919054876458
14.19317188,2.411815991849394,-0.4927607455184213,10.262168996585793
14.20321787,2.0217793730050406,-1.8928631988454498,12.12718268176694
14.21326487,1.8058925189873631,-0.31508619406148136,9.093939664892275
14.22331088,2.132427139572074,-0.15334800251924188,8.896875856824725
14.23335688,2.257843946665413,-1.219649024348296,12.242073390934193
14.24340288,1.7466209122385221,-0.4179649146647748,10.199211033793635
14.25344888,1.118306369121603,-0.3531305268390178,8.570308062396322
14.26349488,1.7433574372360252,-0.7413245916800384,10.424887393611215
14.27354088,1.8570955606289754,-0.7088322685512627,11.146343354298438
14.28358788,1.9456971587521055,-1.0662724412347024,10.414383959443356
14.29363388,1.8629947732158625,-1.0165972346256773,9.671428488249077
14.30367987,2.311039753817845,-0.9165327750707385,10.56889514599331
14.31372587,2.608446170933235,-1.1889647389237872,11.15400174236582
14.32377188,2.818025477275129,-0.11549500548645861,11.022570111816048
14.33381788,2.06643615925076,-0.18812332527612466,10.33902185090443
14.34386388,0.6102738117896176,-0.9425414620270387,9.393836260959224
14.35391088,-0.5272346166933842,-3.700157228871116,14.159038405949326
14.36395688,4.621408287988863,-0.6667503378907451,13.329291421972725
14.37400288,0.7900869182559986,1.445719302171468,2.2710670323461626
14.38404888,0.26569890985214456,-0.03680622337949831,6.817334806236115
14.39409488,2.1450826816558686,0.8604267219172537,10.54677616260874
14.40414088,0.9896333650723316,1.8761863132574121,9.731565432711488
14.41418687,-2.0845301769931015,-3.717069492465074,12.395215832282993
14.42423388,-0.036457338426071885,-2.9543044644438554,13.039037041373737
14.43427988,2.0056793660245265,-0.6223164474164689,9.563662991017011
14.44432588,1.192404076521525,-2.3098584377532787,9.893107210149676
14.45437188,2.0460527444906584,-0.5827550133570146,9.796920184313244
14.46441788,1.9702060923907712,0.460346811988437,8.266635196363795
14.47446358,3.5738449334267646,0.4081175253052071,11.92967032926719
14.48451058,-2.1863923261247313,-1.5738194395354352,15.254545921581949
14.49455658,-2.4363632922917544,-4.351006992635022,13.0398027252478
14.50460258,5.4881432199112865,-0.8645388295877666,5.890963567107806
14.51464858,1.9850185337091137,3.359827840918068,5.15682305100661
14.52469458,0.1335293276525038,-2.2687413022926073,10.33261303851453
14.53474058,2.17897367148903,-0.4726824557477284,11.755362054582706
14.54478658,1.167613130274748,1.473474072990942,9.112677997754375
14.55483358,0.5262732218402006,-2.421486181806507,12.806330136418383
14.56487958,-0.43837781564869566,-1.400185947772322,12.765633087252638
14.57492558,0.9676836020078416,0.7850250879946763,8.281798252847448
14.58497158,1.4226856338470037,-1.9898305986584568,10.91645641999398
14.59501758,1.6370248565874344,0.21870270824850702,10.529794998021188
14.60506358,1.0647098533037314,1.545217876236007,6.689779867984091
14.61510958,1.0919048655328685,-1.369935614441365,11.849069821660853
14.62515658,0.24622071400107812,-1.5061856051737437,12.969239821104381
14.63520258,0.6098404086809713,-1.5198172601717206,10.027241570605405
14.64524858,1.7359574440204708,-2.72118436391896,11.67515976509354
14.65529458,1.7953927337028854,-0.14470847879892978,9.543847343343394
14.66534058,1.059110617209182,0.45856300170855535,7.146331781353171
14.67538658,0.7673444692612649,-1.5466946936473678,11.380736005279381
14.68543258,0.7227417132742513,0.09094074222018293,10.500910062079162
14.69547958,0.2695079127574836,-0.6925496912978355,9.92601814060549
14.70552558,0.7565345046353152,-1.639420708213354,11.901958038416911
14.71557158,0.5414654290729928,-0.29877939043038604,9.178552756537647
14.72561758,1.056438094305921,-0.5737545605793116,10.18156845534068
14.73566358,0.886864904902751,-0.11997503484591278,13.3898073595606
14.74570958,0.15572921286182367,2.869515218290988,10.187098968748561
14.75575558,-4.487822442142101,-0.7208848863595129,7.91643533395465
14.76580258,-0.2668480728693979,-3.0627681465591894,11.080538796681683
14.77584858,0.17430878734245955,-0.08512968407605224,8.416818832647953
14.78589458,2.735513469128942,-0.8184621021150902,8.983047264007798
14.79594058,2.709987023618634,-0.3561591589315893,12.470412402304106
14.80598658,0.7414676793475493,2.1355519097786555,8.29569415310112
14.81603258,-1.2558645097799057,0.25309861247292786,9.151552341292598
14.82607858,-2.5570745465052904,-0.23487204090178462,12.155724021139259
14.83612558,-2.330886686724109,-0.6979205386494449,9.123340452986671
14.84617158,-0.11721740318731133,-2.1012930637182303,8.767234989305162
14.85621758,5.685991470587675,2.5607176650101704,13.758167182506138
14.86626358,-1.4642701493853565,1.5230843330863217,9.594857311369353
14.87630958,-1.5891752359598275,-1.7093193131059614,9.679055947287154
14.88635558,-2.755905104265835,-1.5945586913678156,11.545496799510733
14.89640158,-2.3388505871682117,-2.110487439961107,8.173501975784594
14.90644858,1.1572471568657214,-1.076253683515038,8.636696622881859
14.91649458,4.060168185047366,0.4318850016743344,11.214686549610754
14.92654058,0.507152768239648,1.7772876210580142,8.00462260189831
14.93658658,0.6669957805611411,-0.0013399847484115214,10.06675346802668
14.94663258,-1.6278708061729246,-2.03592628141121,12.074153443258421
14.95667858,-1.2029095754887715,-0.5223304356471411,9.350710920569231
14.96672458,-0.27688811052876605,0.21869260803922544,9.559957994598456
14.97677158,-0.2641902102933444,-0.709243780630355,10.159711838206027
14.98681758,0.28095462100775276,0.32735279412295815,9.231899222283944
14.99686358,0.8178102958540926,-0.15016649876784935,11.08783574716642
15.00690958,-0.6093055745862791,0.10458040638619025,10.650037561186705
15.01695558,-1.5552184839179315,-0.6041247887803965,9.724315477087572
15.02700158,-0.19952495058397887,-1.110902372751362,10.9625274225928
15.03704758,-0.14215962887533826,0.20413169670605313,9.238085496222537
15.04709458,0.12986726402810908,-0.5758424340920616,8.771346269945312
15.05714058,0.5748630168192734,-0.4087655832041847,10.563195115359237
15.06718658,-0.7857415223058595,0.2430557944732073,9.201598020552435
15.07723258,-0.008260294798908373,-0.3010548805975505,10.02480158919887
15.08727858,-0.32141782158458504,0.09983943849132008,10.629306964628718
15.09732458,-0.4011341382601292,-0.5662678358069922,9.836158835827995
15.10737058,0.29956034340444454,-0.19345609512907624,10.339505476835281
15.11741658,-0.1865126311896328,1.207429115515112,9.621443058029275
15.12746358,-0.25079554312801483,0.860900924631605,9.73394882198032
15.13750958,-0.28673145658602633,0.6999691096551293,10.609956598161766
15.14755558,-0.30716139766310585,1.4340699969847248,9.810114256859158
15.15760158,-0.0020620092137476663,0.44788058701127814,10.352616389483881
15.16764758,0.43454596868887346,0.34205526985345447,10.694383881894296
15.17769358,0.3768884618887163,1.0046371160434953,10.06559912669053
15.18773958,0.48069957292837023,1.3073171253401548,10.763507822070155
15.19778658,0.46959500453954006,1.8597826256906174,10.354517023247334
15.20783258,0.2622780648959176,1.3554953307080113,10.398422044461626
15.21787858,0.7635228935689433,1.1135174173167746,10.573250865757082
15.22792458,0.27905561203493867,1.654718271159245,9.847329832327704
15.23797058,0.20678132830805687,1.606914201073181,10.153929049343029
15.24801658,0.10007960422283857,1.4947418341077474,10.15739818554212
15.25806258,0.279779069629951,1.7841026971314375,10.285146219500072
15.26810958,-0.011443182618945336,1.8624107850076264,9.910014565944
15.27815558,-0.011423517578765186,2.0485516774380073,10.318485857112616
15.28820158,-0.4869817881869183,1.6733633486765185,10.526609952525208
15.29824758,-0.002468657099420165,2.080835169529635,9.767258456657766
15.30829358,0.16561879680558766,2.1329390779657826,9.478737512507227
15.31833958,0.22352038780059852,2.5875260320638818,10.02807013921382
15.32838558,-0.33125804868511044,2.1326993844341753,10.39373316862574
15.33843158,0.12384701901008593,2.848647836432015,11.193804231399103
15.34847858,-0.10694381493722839,2.56826103066561,9.419466660718262
15.35852458,-0.09626115184528386,2.624755320974699,10.044310780731422
15.36857058,0.11315243153526829,2.6790393135068977,10.410652001923312
15.37861658,0.4309782736639133,3.188368033040805,10.564596356984202
15.38866258,0.4151244817138398,3.2393587055280935,10.589399445020366
15.39870858,-0.03467751424328964,3.1475288009286184,9.812397943742926
15.40875458,0.20420161822524371,2.7739538565031583,10.421668577735847
15.41880158,0.10382541073564734,3.2732982588802257,10.389978548738986
15.42884758,0.23685497286989166,3.100018709283366,9.973905189110077
15.43889358,0.006147220472276088,2.730091107234476,10.262122149742273
15.44893958,-0.014761221747012785,3.350614058354016,10.230900678750166
15.45898558,0.2040595249943676,4.059367016566992,9.790032881914495
15.46903158,-0.04159326321623503,4.143138347136794,9.545392573616557
15.47907746,0.11922738895226608,3.7322755179709453,10.56158016682536
15.48912446,-0.16467472656584062,4.141811444442016,10.244372405485457
15.49917046,-0.1157140721946022,4.5571328958813355,9.469168127394461
15.50921646,0.3673177775620593,4.605310270035074,10.480179981947646
15.51926246,0.024465332344179677,4.922104652490572,10.62878806257193
15.52930846,-0.2619394817203664,5.163853663451401,10.199988741135554
15.53935446,-0.10534727879438324,5.429701988647518,9.85307107641983
15.54940046,-0.10859688008545355,5.609630075715276,9.60239444967552
15.55944646,0.26421691419662574,5.259169865910339,10.190502938189638
15.56949346,0.2690694569513668,6.555385299043039,9.97729471981636
15.57953946,-0.22968999554404926,6.585314524082719,8.981672574412624
15.58958546,-0.036351508785916496,6.374269502502326,10.068377031716938
15.59963146,0.3697447682597026,7.013473709798949,10.608412366766617
15.60967746,-0.040229771921942416,6.95520872031732,10.137357485656057
15.61972346,0.09760037007148141,7.380224308482913,9.988101483371654
15.62976946,0.3010929763695157,7.417458720612528,10.546774442130094
15.63981646,-0.03309706491400977,7.3397079095246855,10.425227657683106
15.64986246,0.03285145285814851,8.068126718885294,9.681594309679273
15.65990846,0.6294820456944398,8.172431087195049,10.180072857037263
15.66995446,0.19429675608431252,8.776567251626092,10.530928004992154
15.68000046,-0.3691907519031407,9.186459641149996,9.934688203977398
15.69004646,0.5975649758568621,9.67784533007914,10.51988150090591
15.70009246,-0.0258203054337695,10.043860297460547,10.490403826195575
15.71013846,-0.49267714662108075,9.661116727522572,10.740106043193784
15.72018546,-0.20438903532166725,9.541341945549124,10.296493181984108
15.73023146,0.36747919250245054,9.621517827192323,9.628769065848902
15.74027746,0.1465152055896806,9.621300885762354,10.05346155977209
15.75032346,-0.3104590261022577,10.146363551200439,9.553359922852756
15.76036946,-0.032973813125195185,9.131842449916226,8.716012754488357
15.77041546,0.7744367359358559,8.886105104625319,9.533935745257816
15.78046146,0.48743389408419047,9.847762744429492,9.593771972437207
15.79050846,-0.13756331479621645,8.563327290974696,8.991096129709305
15.80055446,1.1862224961070085,10.573623325673807,10.623189996192833
15.81060046,-0.9626588272911959,10.080486553480497,8.625587601452994
15.82064646,-0.0697597019621224,8.371480225501651,10.671719327945446
15.83069246,0.47229113741404377,10.45710007184821,10.795103359083518
15.84073846,-0.40210213752548085,9.107435838475238,9.669944267399487
15.85078446,0.8018177813170194,9.424911363971178,10.934201060819824
15.86083046,-0.46242101760899496,10.008066643900662,9.126682735158276
15.87087746,0.4420048039320334,8.741846656035428,10.08381573700596
15.88092346,0.45991598084427215,9.052098405697112,10.278230997446023
15.89096946,-0.1653252782099083,10.375243590649958,9.468414744982905
15.90101546,-0.5720189354481349,9.811288288313335,10.5141544090816
15.91106146,0.10226493284460646,9.771579040385138,10.289679204142395
15.92110746,0.8168706027982561,10.01305892245546,9.968780132067085
15.93115346,-0.42897988593059566,9.817622336449874,9.05595178679053
15.94119946,0.06832948868215816,10.114815315662774,10.007452955100936
15.95124646,0.31166424073141297,9.385267031343478,10.098456272317982
15.96129246,0.47092481456357027,10.134450182356108,9.491178399652213
15.97133846,-0.2162807917354849,9.674844599504615,9.401492500829253
15.98138446,0.43478043362779606,9.981315580845438,10.408944223606674
15.99143046,-0.17477084904345297,9.652771822650058,9.390145273707837
16.00147646,0.18013101160592013,7.405927348223794,9.956179175647208
16.01152246,0.27820698948735634,8.684603593344269,9.16325713366108
16.02156946,0.10941358823489837,10.342298779938123,9.111858149411926
16.03161546,-0.06424906819814248,9.434497857773152,10.872912601621747
16.04166146,-0.023589209655297386,10.273290030457886,10.450366738324295
16.05170746,0.07753238962639368,10.029262488473956,10.069695173656273
16.06175346,0.2949752276013048,9.39295192182753,10.656233351776365
16.07179946,0.012935926024211893,9.635423969646341,9.829629098923556
16.08184546,0.2142355856085236,9.662217956264225,9.405505306304029
16.09189146,0.08389725738520033,8.526827340112265,9.776762240977451
16.10193846,-0.307274301135028,9.420596513817536,9.338655918178219
16.11198446,0.32421191549244244,9.661242862152514,9.757702270318875
16.12203046,0.9596254693332965,8.538022512139719,10.473455443384978
16.13207646,-0.30472736489659663,9.107865178822696,10.041534717519726
16.14212246,-0.024116512775232503,8.188578511292437,10.001971374356316
16.15216846,0.4606175159301329,8.173866753548818,9.800493983589867
16.16221446,0.3318557929004817,8.894744683343182,9.788429953027624
16.17226046,-0.07073676474866093,7.47088701148426,9.661270624502668
16.18230746,0.14743237149302124,6.97961280154647,10.07607484024063
16.19235346,0.773658930488411,8.758027582429202,9.193745239721428
16.20239946,0.3955672794802031,8.403748984850946,9.185243174576975
16.21244546,0.571674016433238,8.449652348145658,10.356095760911398
16.22249146,-0.25623104251031525,8.980239864506157,10.34579608822885
16.23253746,0.14384434082123665,8.195867262409985,10.36687628707286
16.24258346,0.6881613133302019,8.307325382941452,10.22112376645434
16.25262946,0.6197592521675748,7.777676254478864,10.568868237878572
16.26267646,0.24098875321821783,7.850891595201978,10.730726949511581
16.27272246,-0.055929968095860164,8.653468428406402,10.156394959100826
16.28276846,0.39101232972170097,8.034591147367083,10.07580955607368
16.29281446,0.01069427971439492,7.9319208193901245,9.49333489111945
16.30286046,0.08375991012831108,8.015753633305483,9.441657123368874
16.31290646,0.34492182952217965,8.083469682479887,9.72802870713039
16.32295246,1.3692306927299793,7.922232224665436,10.80805144068543
16.33299946,0.4107407452083039,7.170935013401361,10.944725090012698
16.34304546,0.3718969771044103,8.74510037950348,9.909616460570906
16.35309146,0.08392336243311299,8.064970412735072,10.37454696132162
16.36313746,1.4650521212430687,7.768591457536276,11.399158330985955
16.37318346,-0.3174941942495996,8.979283466090012,9.459539836419975
16.38322946,-0.21015952021993714,8.524196309510232,9.601909723812529
16.39327546,0.1670371814624555,8.508553732923554,10.029626692832586
16.40332146,-0.5605954943179398,8.4537391556621,9.328917126524464
16.41336846,0.4232284787262875,7.798532552304546,9.520480814856555
16.42341446,0.8711023144947763,8.849008979539718,11.012752292642617
16.43346046,0.8671419855766126,7.8189293899336825,11.679129349665974
16.44350646,-2.052225362497197,9.137827058357981,8.467415118549134
16.45355246,0.4704133323225025,8.164373077924175,10.261451859848465
16.46359846,0.8510985624321233,6.471761025757058,10.47013286265154
16.47364446,-0.9232067860719175,8.171273729519934,7.755218174997239
16.48369021,-0.9754109055954195,7.0411462048745435,7.532647560579164
16.49373721,2.192394964897605,8.805262965800784,10.648789236046705
16.50378321,0.15927275172802338,9.206368688330103,9.86841123004843
16.51382921,-0.642351395115692,7.532248325030625,10.259508744125668
16.52387521,-0.6246825047530271,8.601789680262407,10.547144521105444
16.53392121,-0.2575542110964323,8.566610745152266,10.658959372076588
16.54396721,0.01680053891125603,6.320537314491241,10.402260866690924
16.55401321,-0.31190856424437996,7.442283651676003,9.723019741848294
16.56405921,-0.7360487145573813,8.46231034170865,8.832532093208396
16.57410621,-0.1500897132333997,8.560603253217522,10.935835326408842
16.58415221,-0.0906305067883913,8.175377730810109,10.797025618100449
16.59419821,-0.545150170745469,7.924252277754272,9.227401863160194
16.60424421,0.20107959050508062,6.146609057146649,8.914564586660283
16.61429021,0.07063450330718672,7.309236739627409,8.07708630982907
16.62433621,0.8329772385262494,8.001585209952722,9.128687233944984
16.63438221,0.9246283013385751,8.139307045459272,10.052403119688899
16.64442821,-0.6211378910299298,7.78127168136044,10.15226759420322
16.65447521,-0.5874433008223625,7.872098897073346,10.139173851780352
16.66452121,-0.6375155227046722,7.107002787243852,9.837329308467023
16.67456721,0.002667188695633079,5.9012246971891225,9.279131047645649
16.68461321,1.1515520741119072,7.305805760977554,10.021723855763142
16.69465921,-0.08297436675710898,7.118849888498702,10.698907352531311
16.70470521,-0.1115806776271727,6.483440710847644,11.655289664491923
16.71475121,-0.17951397307416023,7.527642203804485,10.224269994132523
16.72479721,-0.33297301481988767,6.460715954699326,8.852470259226026
16.73484421,0.4131699946722161,7.266064546585297,8.859691679797228
16.74489021,0.28736258902715245,7.132499681430027,9.052744950003937
16.75493621,1.1365044207339998,7.025398022525719,10.796738264498
16.76498221,-0.024325729080849953,7.8216504376513045,10.828948398851267
16.77502821,-0.21026320353628067,7.129438354629587,11.197233832795416
16.78507421,-0.24975302240094896,7.011139140110572,10.968170412360127
16.79512021,-0.2059900848300445,7.343181905893722,9.440931971416124
16.80516621,0.5721986810355884,7.595917137818125,8.171242971026409
16.81521221,-0.0899856449626796,7.690457657311815,8.992339890755405
16.82525921,-0.15089686242557246,7.7562988714397605,9.96511407417069
16.83530521,-0.21368991908584584,6.206966918251629,10.430453776272763
16.84535121,0.3434651734455284,7.374076580146419,9.622323663451791
16.85539721,0.19413977597925142,7.4547355767058,9.822838249565834
16.86544321,0.3687814165673297,7.092184491873961,10.59313732128437
16.87548921,-0.10664829603872829,7.865406840766908,10.118326528558296
16.88553521,-0.1960898463923915,7.988142241674299,9.515108949965487
16.89558121,0.27814950853018666,7.4335602893443795,9.59027890325483
16.90562821,0.5322318869249585,7.305861620957158,10.643556404845548
16.91567421,-0.3113366145769387,7.6325256373663635,10.104973356049996
16.92572021,-0.3054657344368155,7.54361001451042,9.504966546400253
16.93576621,-0.1027627140157048,6.211623533699399,8.978532387862671
16.94581221,0.2423625975676259,5.6881950121854,9.3961444903642
16.95585821,0.7593048311904559,7.251967372456762,9.248273472014857
16.96590421,-0.1364605173523892,6.85920920027869,10.083763585363148
16.97595021,0.08577351978301648,6.347312997191637,11.622364673432987
16.98599721,-0.8140384498256023,7.356397651866752,9.641726401665142
16.99604321,0.022055351415639145,7.896045755546948,8.240157978774512
17.00608921,-0.42263150511603637,6.1491834635656915,9.821440326457314
17.01613521,-0.06693236560073856,6.412801194668645,9.737405100055412
17.02618121,-0.05384385501815638,7.672986699578222,10.424771521094305
17.03622721,-1.042916261207414,7.630321848020718,10.342791930335032
17.04627321,-0.16518368759946161,7.348108759954685,10.018066463203954
17.05631921,-1.4395617383900274,5.498489899141991,9.59874524172904
17.06636521,-0.9583628753553249,5.323579277905601,8.11579760478724
17.07641221,1.1322192810433576,6.08860228671211,8.64866833861412
17.08645821,0.5525781939322766,5.143151026563819,10.42923003511331
17.09650421,-0.04696147331015754,4.119590190025896,11.454431961645886
17.10655021,-0.55947736461724,5.608304224639996,10.34975036054486
17.11659621,-2.19147259840547,5.810343518813244,6.18001338757438
17.12664221,-0.22306148462433886,3.9639270446966632,9.697026760776216
17.13668821,-0.9176459965653322,4.132396976026121,9.819642151953929
17.14673421,1.4486311218568686,6.292247726618153,7.736625335250444
17.15678121,-0.31696162525652144,6.641581160748207,9.567528595266214
17.16682721,-2.0291322025032064,5.424738893305774,10.382066256085064
17.17687321,-2.580330549900782,6.31150566066244,9.454146590208452
17.18691921,-2.12673077733105,3.9277043438729713,10.37910290090543
17.19696521,-1.5586871121281958,2.736844313700881,10.116607103349297
17.20701121,-0.20709828716243173,3.8877066591019314,8.105063965817415
17.21705721,0.5922738779397959,4.239068236231484,8.654423022704083
17.22710321,-0.9827364588087658,3.2817186849508846,9.854776432172041
17.23714921,-0.7572687973256271,4.040031553550761,8.522837356454527
17.24719621,0.7027416040338071,4.681685819432176,10.34543415230235
17.25724221,0.427520995876394,5.3176893540500565,10.994327252777403
17.26728821,-1.1920825044707666,4.144862228615934,9.85014272275528
17.27733421,-1.3069753389414975,2.479625470306755,9.719689575009166
17.28738021,-1.2005653276122747,0.7715915272650212,10.907161315915783
17.29742621,-1.010364957782849,-0.5706865761926394,11.369065214659976
17.30747221,-0.9629526919307714,-0.0382461466803811,10.194064961636139
17.31751821,-0.03984465015156161,0.7173003274475025,9.793158174613922
17.32756521,0.1808466506948918,-0.2960620936466908,9.412399829515747
17.33761121,0.5297316980092796,-1.5303678621569103,9.408671652145154
17.34765721,1.1975463045905481,-1.960934682906334,9.523366143524692
17.35770321,2.2634943473685794,-0.4841311690591733,9.642907556611187
17.36774921,1.5562397143753357,0.9239804513318629,8.407910827701954
17.37779521,1.3860607272962568,0.13377590708151585,8.698503092739092
17.38784121,0.6588483258448824,-0.49351054369415365,10.27833326140823
17.39788721,-0.37593093161123636,-0.9209710513031667,11.21503458103949
17.40793321,-0.2756693787642746,-1.483157436144601,10.84947987644327
17.41798021,0.25772260925384666,-0.11528803492706284,10.314003289395421
17.42802621,-0.31650287759265433,1.002719159209848,8.576174508120049
17.43807221,-0.3860562836374649,-0.12551447892362827,9.83233748287145
17.44811821,-0.527746275198313,-1.8863453680181343,11.047713350384925
17.45816421,-0.17133823424421765,-1.5272574554133418,11.16992072204808
17.46821021,0.42908200272355884,-0.33622072259500807,10.361538305104942
17.47825621,-0.5194146410520089,0.5563073278131275,8.662061314140917
17.48830221,-0.5806759790012481,0.9902841553715155,8.484681845098127
17.49834921,-0.7834681950697066,-0.4571215524914988,9.580061570174244
17.50839521,-0.28417807036679044,-1.3571259293646596,11.136804343173923
17.51844121,0.2132983913431979,1.3020732679049274,8.828962364413341
17.52848721,-0.4237861196403301,1.2827982939029914,8.15421897479755
17.53853321,-0.6925799733724306,0.8189483267779195,7.463254698973625
17.54857921,-0.6579866380244126,2.3189576612833362,7.247101514296817
17.55862521,-2.1511466125217935,-2.5551565226810915,11.959171908695108
17.56867121,-0.7892971166186127,-3.2625647335128782,11.05098424644247
17.57871721,0.42792728006723235,2.6880896641775154,8.098947384453295
17.58876421,-2.8778711882837547,-1.3458502596390043,7.262453722444457
17.59881021,0.22899992902344918,-3.8876562201699967,12.181438148390715
17.60885621,-0.36557313718116413,1.540117376865896,8.373106169677943
17.61890221,-2.08062859524245,-0.9345255818983192,7.908197008073188
17.62894821,2.5437655633538436,-7.441224038708325,18.449033775592913
17.63899421,1.794546202170339,-0.8518914509318594,11.75209640809986
17.64904021,2.1896661441988883,2.3413492336123825,9.836195880885597
17.65908621,-0.7931985223236725,-4.310731435101092,14.945193327122393
17.66913221,1.582764643366378,-3.9377483491768315,14.416296678668955
17.67917921,2.357712719530629,2.1545239046023044,11.676140054201221
17.68922521,4.3118396366673135,-0.15882746479925014,13.68835763505817
17.69927121,7.17766567712054,-0.7890000891725654,18.14569625532335
17.70931721,6.313473827860555,0.6626077520218989,17.46944675898167
17.71936321,1.1713134081713377,-0.462386421184892,17.78834974752008
17.72940921,1.0605267541804682,-3.077446381916228,17.987462934438767
17.73945521,0.7974893542543003,-7.107052708258151,21.99384827653062
17.74950121,-2.5075267397487004,-7.481961339732657,20.274694495389113
17.75954721,-2.740360136701769,-6.287063868844575,17.168945299822724
17.76959421,-2.6647182451964544,-8.430102869659432,18.103971084176
17.77964021,2.869367117053026,-7.567440620935008,21.447246465909846
17.78968621,1.02486125805331,-0.22053887684961307,16.329383635493528
17.79973221,1.0442169723956771,-1.1109432595676634,17.751419190719936
17.80977821,2.7997998956929324,-1.2913317322438815,25.498701202497045
17.81982421,1.1643175804082613,1.9197318642686756,25.795982375875226
17.82987021,-2.7160595519639523,0.28892183102980634,31.84161688613701
17.83991621,-5.139439250082539,3.035106572039606,27.008220932109857
17.84996321,-6.810503217067986,1.9215855334879952,19.456461971844284
17.86000921,-2.0537366258302368,-0.10799109980683902,14.340448660628374
17.87005521,2.6524725611922038,-1.7091635472801028,19.6312773734833
17.88010121,-1.5362118315579782,-7.608398632452313,23.450139485364716
17.89014721,0.7362750197515688,-4.420321998071305,21.747665138581958
17.90019321,3.527642425670444,-1.0217836288866633,25.91914880138487
17.91023921,0.862111147443618,-3.543411802055652,29.61657193339095
17.92028521,-0.2996605704162386,1.3813442953734345,24.737158015315384
17.93033121,-0.3472816220322094,-1.5194416487535691,25.94524035384999
17.94037821,3.4943945416835556,-4.9728208792735735,29.22150743048525
17.95042421,4.483180605812688,1.5119145600077875,25.511037945279668
17.96047021,3.3343811245018933,0.4238418241761992,23.590642813437427
17.97051621,4.0861411675841275,-3.6331374078613963,27.945194908395965
17.98056221,3.988632594573812,0.010989194578574887,25.637355042635246
17.99060821,1.2887218048126592,-2.6584054515950735,28.915184016886403
18.00065421,-0.46460637057443144,-6.418546086022656,29.544481871011726
18.01070021,0.8281362688897975,-6.28946568090716,30.018648224180076
18.02074621,0.6323780698386894,-4.984951789656927,29.113679296321052
18.03079321,-1.6788310395774084,-6.592231169207318,29.590653947514944
18.04083921,-3.1244666446381824,-9.361394144241212,33.45786917102811
18.05088521,-0.8466416774698547,-7.460308321839779,29.759746729875168
18.06093121,-1.889794824662487,-5.022448413084517,28.198311052866384
18.07097721,-1.8826931511327842,-2.888373137279064,24.405895941832323
18.08102321,-1.2088400758299687,-1.779450389594637,28.167704259858468
18.09106921,-0.3024869904606652,0.06574014478440673,33.13595931032426
18.10111521,-0.3877310093242622,2.764544778757615,33.32491523315254
18.11116121,-3.190275997707447,4.948970966121349,29.96724821365146
18.12120821,-1.3365971972599253,0.6030711686798431,32.156452058759584
18.13125421,-0.4502919657440249,5.374411663981046,24.392951723333397
18.14130021,1.5193317363815781,-0.05082935465965987,32.10655358701073
18.15134621,-2.2522888808143477,-3.9566384999900075,32.30755515473294
18.16139221,-1.5696839048541422,2.243301749329142,23.49383531333536
18.17143821,-2.0834997654758207,-2.0853935077133996,27.27958489830798
18.18148421,0.8687376189638326,-1.0590527344489387,25.737915329187317
18.19153021,-0.13580076437955999,1.9957706922278007,26.03012557603942
18.20157621,-0.6722027778915338,-7.1726423622088165,33.68383380167516
18.21162321,0.7496940901009408,-5.034896290757737,33.341992004412305
18.22166921,2.215541510901973,-2.974204021057868,30.73451138078736
18.23171521,-0.5155745873774517,-2.7068472387542775,31.553566157329026
18.24176121,1.9093894221726955,-0.7579472576456173,30.225980328888586
18.25180721,-2.0902797408944873,-2.897159686571666,29.555807169496312
18.26185321,-1.758230743383626,-5.446084280862122,29.68842861946068
18.27189921,0.9093361236133398,-4.540736779428478,27.230436291971184
18.28194521,1.2038881196998799,-0.7117653823978144,28.430700280491784
18.29199121,-1.2213329433557965,-3.273274556530094,29.79858357685368
18.30203821,-2.705361600076434,0.5393991060020671,28.427076084832443
18.31208421,-4.044914160281125,-2.829603752099345,31.307099232750982
18.32213021,-1.3899704349481177,-5.433448936941608,33.40888329833642
18.33217621,-0.4958997087909037,-3.694806411005147,29.665083088649308
18.34222221,0.5442308384820709,-2.394683594036686,27.549180372772874
18.35226821,-0.8803600856981204,-1.777989226477198,27.43777334466111
18.36231421,-1.006599281640554,-0.03885486707761529,30.392980230810075
18.37236021,-1.3798577995581178,0.5814126182744008,31.632116281420473
18.38240621,-1.3358524525918885,1.39266844512434,30.805322505896292
18.39245321,-0.15984847431876112,-0.5700495870546322,31.707388649095986
18.40249921,-1.0443503331117368,1.1470416611454808,27.36919035010932
18.41254521,1.8866743076165735,2.0305416133556196,26.748759226477215
18.42259121,-0.8967755460075066,-2.042074639696887,27.4106149340274
18.43263721,-0.3848087758499173,-2.307930046856107,25.428263291249785
18.44268321,1.6019986919429368,-2.4748199360896637,27.477682894441433
18.45272921,0.5852525322574341,-1.2018467630287788,28.36947297463047
18.46277521,-1.272365614345795,-0.0828859755683331,27.16131040198788
18.47282121,-0.3561083320425382,-0.6637432381445958,28.821692456122292
18.48286688,-0.30040738187324184,0.6711810232385018,27.692726026989074
18.49291388,-1.4396991548294087,1.3459675101252233,24.60275395942853
18.50295988,0.3827746995644217,-1.0713488214214602,25.048269245747882
18.51300588,-0.74160304811287,-3.6209601024186098,29.47323197292522
18.52305188,-1.6832125198639518,-4.274268408714992,27.635970032234724
18.53309788,-1.5631325985297329,1.3258053708343862,20.353594961309877
18.54314388,-2.414231111986458,-2.586219995093265,25.548669222117
18.55318988,-6.547917611491287,-3.1765312956973375,22.805249477746248
18.56323587,-0.6964699360212945,1.5570549091923314,20.243125750393943
18.57328187,1.3138348801240596,-0.4652454986273168,23.41084405908038
18.58332888,-2.2821200477483576,-3.132986622308055,20.933742581885255
18.59337488,6.464825323776499,0.6440800300840599,23.161481584723855
18.60342088,9.707186627119325,1.1982658318772437,32.6303262348361
18.61346688,4.3717154390091295,1.0710715734290066,29.312728177437542
18.62351288,2.5983541179705454,3.2022418561945964,24.469366609158712
18.63355888,0.6350797953173423,1.6478867958304992,24.867713859304033
18.64360488,3.3928790821407318,4.349308438895669,21.505456325649046
18.65365088,-0.21561155879679966,2.6423648424286768,17.16411843476891
18.66369687,1.3882543326045262,-1.6713965451615165,20.16209054808246
18.67374287,4.941684007214284,-0.3642373540156574,22.924712211542023
18.68378988,7.710753293159691,1.2044506225793778,23.076007102196872
18.69383588,3.761504623212875,-0.02477977263437453,21.45077573252969
18.70388188,2.0474192539738425,0.7298186052250842,17.891089512046328
18.71392788,3.890787917119546,1.5998456103431922,19.05262013987057
18.72397388,-0.22527340626341624,1.847367617451038,16.883638646953276
18.73401988,-1.9162176362805066,-1.167431504445925,17.355921760724968
18.74406588,2.835119504160338,-1.1296222676975938,20.115600967913004
18.75411188,2.9688966525687768,-0.07252374248720718,17.963582327874967
18.76415788,4.129726777633584,0.9104122941047911,17.46469335654625
18.77420487,1.2011681277897632,-2.761174471363023,17.683487668800623
18.78425088,2.3255547045034164,0.030364838839524438,15.64611144121659
18.79429688,1.5616928142163806,0.3114022313689677,14.994089946653085
18.80434288,1.570126793266154,1.919841340280974,13.762868375196877
18.81438888,1.4657719693207982,2.2451554976736947,14.407364779081718
18.82443488,1.8108536612030568,2.175014374164776,14.864918501268608
18.83448088,0.5654564626511105,0.7698092936688,14.458673982404907
18.84452688,1.3130210433436476,0.41533217050085475,13.013888946646007
18.85457288,1.7402617691644162,0.4170551287044887,12.710656531953335
18.86461888,1.8241969224234433,1.1578638752648087,11.827209342088782
18.87466587,2.468941821071681,1.7346939088628008,12.722524628870213
18.88471187,2.0902658834330015,2.2001974257900354,10.668620681992977
18.89475788,4.507254211747908,4.337683684815379,11.675465469768618
18.90480388,3.570519382889166,3.827343504863423,12.479228219717712
18.91484988,5.479948196752561,2.4162872809667606,13.472133107939785
18.92489588,4.9294485815269455,0.40647710544439747,14.865783074032038
18.93494188,4.38912014298981,2.970482705553007,12.551634408550846
18.94498788,4.883228567610438,3.533048537068251,11.043723396862664
18.95503388,3.928663624427505,2.051182546844768,10.93514926726611
18.96508088,3.9005678871864986,0.5729007841842786,10.938655061343644
18.97512687,5.077536573111651,0.6837628679555505,9.923716741919064
18.98517287,6.1948573924610395,0.5797834175706279,8.62992652097706
18.99521888,7.115782940664939,-1.1518180753696667,8.21931938399906
19.00526488,6.190741002790662,-2.1370467909777435,8.447942795797548
19.01531088,6.837728333014157,0.1134251159215523,6.218872666524576
19.02535688,6.204750431339141,-0.005543984112320368,6.828336106807948
19.03540288,4.245005615292438,0.5380079575117359,7.093333839874562
19.04544888,2.5368530107479246,2.331785887782035,3.7784773220208283
19.05549488,4.063304054602528,1.9141297375284654,4.980037094573118
19.06554188,7.356767582176154,1.6436913214717286,8.544667826687519
19.07558788,4.699043642711374,1.6454532675022149,6.372021146257225
19.08563387,1.8291736195743031,0.9152672125165533,2.7508965189017003
19.09567987,4.102416323442161,2.5412274139162103,2.403035399840457
19.10572588,4.1489029715505215,2.1251788165577894,6.090525279276159
19.11577188,1.5536686853499477,0.38333932823957356,4.023340790730386
19.12581788,2.964889059326064,2.9111965041462184,0.7462715364658763
19.13586388,3.9842376954359047,0.9222791041987174,4.512641080801463
19.14590988,2.816244344792674,0.28363871782289396,4.814455713248416
19.15595688,3.0543752231370864,1.3764464926248348,1.9412690758499984
19.16600288,4.743432547528835,0.18511294387558047,3.1497119339430246
19.17604888,5.98995930314575,0.8296207543302887,6.122318975375723
19.18609487,3.2394853289083474,1.4046782373588542,2.2791578811857884
19.19614087,4.2039512750460295,-0.8506220340238797,2.2515084483067325
19.20618688,5.127057632341913,-0.5916550774710424,4.102212032129632
19.21623288,3.7967105310070384,0.6323210404596171,2.9383045144950994
19.22627888,3.1297892879023004,-0.29587336625286975,1.4076012877229518
19.23632488,4.351301141781606,0.6896046611641454,0.3275348907426333
19.24637088,2.9817909312766178,0.7972168632047141,-0.036822994729759806
19.25641688,3.090483708738634,-1.0340501127261665,1.558746474044128
19.26646388,4.865805340510551,0.28512670710502164,1.3911121596514784
19.27650988,4.355821814652774,0.4378909962507265,1.176219718843575
19.28655588,4.670710433161005,-0.4362632622124982,1.6328529365867857
19.29660187,4.097344756160506,0.832968478532369,0.8957036734104633
19.30664787,3.6269995233228043,2.2085130376883466,-0.3390225733681731
19.31669388,1.6287070415024145,-0.6650092323058004,0.8831008237178235
19.32673988,2.2769613645558873,0.04773158444318353,0.3355246547481098
19.33678588,4.057836805074965,2.0377195320457515,0.15027638517997866
19.34683188,3.894195201635842,0.167525786910718,1.3967565637935015
19.35687788,3.31429394594,0.5007850815448216,-0.12824166354670563
19.36692488,4.15702783020518,1.496657178106928,-1.7929814831371687
19.37697088,5.284476511868512,1.004990385132946,-0.5921712740553267
19.38701688,5.74838946944634,-0.09432908095655122,-1.0421147984750134
19.39706287,6.214550439744527,-1.1641400790396526,-1.5706379112279671
19.40710887,6.595176354085453,1.8687781152748073,-2.802554898328478
19.41715488,7.190984342672579,0.9995590228192068,-1.438119516434472
19.42720088,5.409700208027162,-0.5671884751822304,-1.3392931164069577
19.43724688,4.433424141536396,-0.0421701579094116,-2.708056131769262
19.44729288,5.644343425524765,1.9385382034261642,-1.9256290636618303
19.45733988,5.393966204782397,2.2382973420195507,-1.0970491290276378
19.46738588,5.037152261462318,2.080432805723996,-0.19456793169330067
19.47743188,3.352376831494472,2.120755990019359,-1.388032791837945
19.48747825,2.3807395793870727,1.2144644312113992,-2.513712985399423
19.49752425,3.820681098370494,-0.4604118738347179,-1.7666045412712335
19.50757025,3.445237673669437,2.384543929686463,-2.772201478627563
19.51761625,1.9856714299440703,0.1530845386798768,-3.776161509476863
19.52766225,2.9210601022984717,-1.0373518516501126,-1.717870490631626
19.53770825,2.69515850556401,0.8507475078606255,-2.1323809487602974
19.54775425,1.0318224992035003,-1.0421523593597004,-3.082891693924939
19.55780125,3.538627947799997,-1.804215221188644,-2.7068866610404125
19.56784725,3.0452446125472763,-0.8101265399589548,-2.7196153127481266
19.57789325,2.7743690812786945,-0.7090570447247028,-0.9342385673601596
19.58793925,0.758040673921124,-3.0908854775562316,-3.6213750521545474
19.59798525,6.004600022505413,-0.8372498818711838,-4.447814035889101
19.60803125,4.312782444868967,-0.5176251987180124,-4.186318152306397
19.61807725,5.07052848658472,-1.3871473026424181,-2.644884411504922
19.62812325,7.473302109051758,-0.6313476864292114,-0.5614754704542864
19.63816925,3.060238322992736,-0.8764713770734177,-5.530825905484811
19.64821525,8.27983140067728,0.15592286160737925,-1.7087330646317944
19.65826125,4.8127876657842705,1.7440826405859178,-2.9477041515147855
19.66830825,6.353462768624848,1.1782932300310827,-3.120270335427634
19.67835425,3.931400322090152,-0.9199959903429442,-1.1593811414026844
19.68840025,3.661467920130723,3.1675842243847714,-2.5789038699997135
19.69844625,1.1786711315226237,0.11233820123947076,-2.4784004653676024
19.70849225,4.4462678025594835,2.4691637283591517,-3.9740406475899035
19.71853825,1.6666001458217914,3.208348217273733,-3.7967237521288086
19.72858425,1.5883979696115071,0.7633594193819029,-2.167442780827624
19.73863025,3.258906724363531,2.3074046398103016,-3.795420627428731
19.74867625,3.0800133710043935,0.6170093123528123,-1.3408928532009126
19.75872225,1.95352574760002,-0.8096875441272832,-2.608751820243341
19.76876925,5.755692283882522,0.592254411425484,-1.6897657801132815
19.77881525,2.4279630961678484,-0.676824629121385,-3.216254132051275
19.78886125,4.537557238440694,2.40916450774037,-1.5444856910375238
19.79890725,3.567439526808953,0.43696748055174167,-1.4419219136447095
19.80895325,6.719728594865913,1.5187395933292807,-0.9972881853860616
19.81899925,5.78448746182615,0.040285457987105505,0.38684856419127733
19.82904525,4.996009219410404,0.1460757985930207,1.075482904461365
19.83909125,2.1807348892389977,-0.659465013472064,-0.8193474879634737
19.84913725,0.7106694567855869,-2.5101766184704046,-5.9681208432541695
19.85918325,5.937324055255203,-0.2949414057659002,-2.9661535397366094
19.86923025,2.429549036794402,-0.6579152330426591,-3.3653626348750274
19.87927625,2.5408171610937718,-0.5574734171213084,-1.177373268508017
19.88932225,2.1924655565955042,-0.10474639258056927,-1.8544156394281577
19.89936825,3.080731228149737,3.0903887149606564,-2.6651258265778006
19.90941425,-0.10695113544991097,-2.826976812862377,-3.105591152255082
19.91946025,4.7637158923543765,1.2818253988548631,-3.158010857111474
19.92950625,3.2019742216135807,1.9738148975325576,-2.7885239024383646
19.93955225,2.9103621470912198,-1.061279426586094,-0.24184294618447805
19.94959825,2.8517083639952214,0.7171159095795953,-1.5924818663049565
19.95964425,2.925232829795184,-0.48434127309631625,0.7099147860117317
19.96969125,5.515587525920739,-1.5117498351991125,2.0197271992040373
19.97973725,4.89159197234115,1.1315540185854651,1.6224829789194715
19.98978325,3.95029994963277,1.484120993750581,1.238868293986248
19.99982925,3.2777226799001187,-0.9474203159137852,2.490401103188414
20.00987525,3.303586110533459,-0.183588454743628,1.1848090530544397
20.01992125,1.7663028636636198,0.730618213328131,1.088110663738581
20.02996725,0.561130603944275,-1.8291388554121624,0.23368089345793897
20.04001325,6.652353716644918,-0.5542554545676559,4.162944574106918
20.05005925,3.857767576621485,-2.1686242761410943,2.9275166899511476
20.06010525,1.5753867247343978,-1.4143779440627504,-1.2284938014194735
20.07015225,2.2793757113170265,-2.473520075863804,-1.8731468723641733
20.08019825,6.246226866694093,-0.924030822095006,1.3538070928311512
20.09024425,1.3626997306604012,-2.80159393930235,1.8188719361084262
20.10029025,1.0747915967922008,-2.4259731046882558,1.9059232344929562
20.11033625,5.332550054641667,0.5273855841158177,2.882674761033794
20.12038225,-0.10937930897305505,-4.437975633212167,1.3338964312672936
20.13042825,0.8711809773250873,-2.337595099547932,-0.5498791585898078
20.14047425,0.2718045857375333,-1.197082335036823,2.0057291687492156
20.15052025,-0.18475191988230732,-2.404720967846927,3.5666137314762407
20.16056625,-0.4752087570252796,-1.9233995359338398,2.8906752237142728
20.17061225,0.881338616025357,2.98995633861801,1.3699571894589768
20.18065925,-1.6771203380778905,-0.8474799388316021,3.7446687778370755
20.19070525,-0.6388889744188418,-1.0424710694300348,3.2021245615798417
20.20075125,2.068364675422278,7.048130033004533,2.6120332250100735
20.21079725,-1.5998734469655604,0.2594172766784534,4.735347937635923
20.22084325,0.011462085014087704,-1.2396474187038378,7.174874129693237
20.23088925,-0.7519673208479964,2.8099802752212324,3.4003401153697492
20.24093525,-0.1423714846179439,-1.2976478905020388,6.124388806049047
20.25098125,1.8317568303471057,-2.90335854648619,7.718157702893839
20.26102725,2.6488261185266277,1.90862164346724,3.1020269113823637
20.27107325,1.9706779181175207,-0.5112242566006907,5.6298347299896765
20.28112025,4.123683049576469,-0.9817574110935243,9.362714712877688
20.29116625,3.4317125772271817,1.4114793355640955,7.090402023868005
20.30121225,3.5981804904942987,2.1860327756907343,6.818343645976156
20.31125825,3.708132655006408,0.2589723922095259,9.178770660866885
20.32130425,1.9764687958763423,-0.13949127221997687,8.301867363497362
20.33135025,1.8729604312685662,1.0487902841870886,7.538335435405987
20.34139625,1.2304488535072617,-1.419673997192614,7.596010167178484
20.35144225,-0.3700196784842218,-1.5264826490325276,7.226199722152311
20.36148825,1.550205206428549,0.16909733468000793,6.154031928999845
20.37153425,4.421690990008073,0.2139903617211362,9.729933782010619
20.38158025,2.83913829773267,-1.6908222243699347,10.760118518143809
20.39162725,4.288806938405299,-1.3572794569814235,9.997407158364656
20.40167325,5.934186837747199,1.2426503829337507,10.14650718421723
20.41171925,4.882950900359918,0.2519572902067373,10.637802446194524
20.42176525,3.339654188193769,-1.8981620481464736,12.453843101292787
20.43181125,3.6011133289974024,1.2391253140403056,10.17873885202594
20.44185725,1.9246637890271376,-2.7329843613758262,11.870513832505086
20.45190325,1.4033580274316264,-4.000579004829464,11.390735618598859
20.46194925,4.458953512794874,1.080075639825459,10.451499347503448
20.47199525,2.0584712190958916,-1.6580611611333054,12.22323565501462
20.48204133,2.676220200893148,-2.7145769777442856,15.04312055084175
20.49208733,3.7047697643359547,1.2346732141300294,14.445436339649085
20.50213433,0.7924225881199134,0.5143225550445333,12.164260389410522
20.51218033,1.3970842753389348,-0.7086926151719467,14.879103453693304
20.52222633,0.18530408744719615,0.11724313416638431,12.254308348002196
20.53227233,-2.027698314537418,-0.6733880379540386,11.81719426215168
20.54231833,0.39602211260166775,-2.8028262155127006,14.713068190616605
20.55236433,1.4525883134683335,-1.0860637697712436,14.298135708745638
20.56241033,1.5850226738288744,-1.6741530158932008,15.878390632558142
20.57245633,-0.1656473243254354,-1.7427636076043957,14.757734797009382
20.58250233,1.9077760917429365,0.2087630423937561,15.542643616014466
20.59254833,0.3443408755227828,-0.43764312302084524,14.15619063949061
20.60259433,2.8507899956603913,0.023415899989204375,17.870525126141708
20.61264133,0.26099210389212874,-1.0269284324420584,17.1922607411558
20.62268733,3.1714442437623465,-0.9348439971448492,20.109500197355757
20.63273333,6.7071015665445755,1.8294111044316448,21.016194004891123
20.64277933,5.388899333710294,2.3307966454696096,19.501650198309214
20.65282533,7.0073781328361,2.339402021792024,18.57749756471365
20.66287133,10.208759511132873,3.8793737306982474,24.86833484086307
20.67291733,6.625471091952303,2.5371361739496345,21.695652630156847
20.68296333,5.507404898287386,0.12768331706625735,23.775805308056746
20.69300933,7.249239267563604,1.923557940231751,23.10391762732672
20.70305533,2.3981755444098183,-2.3094047657687415,21.361193631319303
20.71310133,6.859804985200095,-2.411814729374685,23.718427140687794
20.72314733,5.179673752033496,-1.0850998787468114,22.54352281952466
20.73319433,6.860082096594298,-4.110285359208892,22.844811427898165
20.74324033,6.235295362036303,-5.594111885701784,25.522829901293097
20.75328633,4.985567144015423,-3.675679914839891,21.088676664629524
20.76333233,7.529969369569697,-3.317289487632654,21.296147803131774
20.77337833,7.103120801112822,-2.807745583107513,24.86968806416982
20.78342433,5.095406189306714,-3.337575243510069,25.06116484160902
20.79347033,2.1280348150007278,-2.84969107369053,23.093710357087925
20.80351633,7.197318630021115,-3.6392508502982106,26.020515686892615
20.81356233,3.2100269178479484,-2.785116251154934,25.8125962850706
20.82360833,-0.8710003381345649,-2.532608152840448,22.660452954211983
20.83365433,1.0768022637164771,-2.6809592572461347,25.75184023950186
20.84370133,3.8101898325865697,-1.9574861363822402,28.442911004414107
20.85374733,0.5418910568730194,-1.6670407801486258,28.787646856891534
20.86379333,-3.490375162814385,2.9500689784555827,25.084295094087608
20.87383933,-2.675303772244414,0.4479173563683823,32.20592835761848
20.88388533,1.0055658817681277,-2.576663629258663,35.47019975625484
20.89393133,0.7861852832452537,-1.796304842958529,25.56205651469689
20.90397733,4.985439516731036,-5.927010238121308,30.285888592047357
20.91402333,10.141727252853343,-2.7800653824246853,33.45969351273492
20.92406933,3.329812010170348,-0.7675674240052646,30.89277282435969
20.93411533,2.3440319398293217,-0.5943581691599731,30.852265471920774
20.94416133,-0.21812730377786047,-1.3312691268520276,33.65961277587629
20.95420733,2.446903681145507,-2.3433465815385457,33.06923410036666
20.96425333,0.49641935358170725,-6.819375178488993,31.916885213381114
20.97430033,4.18860637159275,-4.425858282885231,30.389180301687787
20.98434633,2.840611303884303,-3.845425628302929,33.560886569394526
20.99439233,1.6223355480998982,-2.430789296048779,34.99352402377849
21.00443833,0.40116027766966206,0.9180796674472034,35.28034875320123
21.01448433,-2.221724713282995,-1.7089400210658385,38.02316995219334
21.02453033,0.09431760269363317,-4.95450834021702,38.296728105547395
21.03457633,1.0944980640322037,-3.239792176822571,36.08455459527416
21.04462233,3.961724863529903,-3.758189837000675,36.05319855284297
21.05466833,0.6233044913214382,-0.25839165586699764,36.27068391573732
21.06471433,-0.1308482852757319,-0.7388320601734067,38.96748635512173
21.07476033,1.551077666674086,0.10665082089399346,40.18157105852171
21.08480633,0.006120869598951087,-1.740379259874946,38.949949522277734
21.09485233,2.1440827505780597,-3.179823632650418,39.30509612748614
21.10489933,2.7289094262486584,-2.0605754408427535,39.55094763100382
21.11494533,5.170086425543987,-0.8083998620680317,40.72520859094965
21.12499133,3.7587108237851465,-2.8651521086082172,42.05203406768706
21.13503733,5.353173423712472,-3.3648682770575933,43.91826185451367
21.14508333,2.4769590471154292,-2.568057960260904,39.885753809517766
21.15512933,2.8100210872014837,-1.903429188647449,36.9520543608838
21.16517533,0.9970350592957546,-3.2957989042636084,41.4688319342891
21.17522133,4.259674143846094,1.228145768384371,41.272046433751825
21.18526733,2.565382991554064,-1.8008511711308273,45.51623874305385
21.19531333,2.026494076447726,-4.617301954813747,46.613099835826475
21.20535933,6.951793916974475,-2.594690445626647,46.252322114185155
21.21540533,5.853187053636232,-2.0581886513010694,45.144203098585876
21.22545133,1.7966291539414203,-4.174060007796549,42.72970094355339
21.23549733,5.796546749514826,-0.5998378046442674,39.90873302732571
21.24554433,6.828960901039534,-2.2922146907021896,44.79599253707954
21.25559033,-0.5244385362791052,-7.55388527170762,40.86768469813274
21.26563633,2.582014955109058,-3.356788176951513,39.350760943767845
21.27568233,2.6412590497949484,-3.93838461879512,40.55635171249632
21.28572833,-3.1361130680093057,-2.4178123786477377,38.53279694294812
21.29577433,-3.063723389594053,-3.6942651810886447,44.49300864169489
21.30582033,-7.0640978714024385,-6.395803749370686,41.35169777615733
21.31586633,-8.954142221181522,-4.576175004020864,38.39766352712301
21.32591233,-6.182201288124834,-6.887515453688198,40.13021375492255
21.33595833,-0.5999958126724713,-0.13749581623385299,39.082102579018475
21.34600433,0.5463339331373228,0.49518275495793884,40.971838987598815
21.35605033,-3.116461961739054,-5.105994651691561,45.26504812119352
21.36609733,0.02960715972201268,-2.9144577139588947,43.62205034188709
21.37614333,2.07502898000736,-0.7566703317228143,42.06950507869749
21.38618933,-0.717676959226449,0.8362064608234921,40.72905910720546
21.39623533,2.6928738103928316,4.300747250784094,43.238395789206265
21.40628133,2.3410337159970402,1.405513927156599,43.83531199737792
21.41632733,3.455965196774647,-3.2877093973122378,42.62346138543194
21.42637333,5.347538936871687,-0.972667452053941,42.0122570788629
21.43641933,4.698212922527233,-1.2671031335483987,42.04950454989195
21.44646533,1.9548405781295664,0.11239911665722954,40.78079699303497
21.45651133,1.2778929479862589,-4.642154931387856,42.82667291759864
21.46655733,2.448842856586905,-5.503575554694523,41.28391348053221
21.47660333,0.6144594928549867,-5.513312863943249,40.01764263689197
21.48664946,0.3063142227664565,-8.291610043066976,41.07770651504596
21.49669646,0.0964356010223809,-2.9925406725922636,39.423528678906706
21.50674246,1.1918600330204236,-0.9700269192712846,40.59240533341831
21.51678846,-0.6106119841640713,-4.23957035032397,40.04578272132653
21.52683446,3.7369567541532085,-3.9612115183679375,42.44679238902155
21.53688046,4.600635336811794,-5.449976376941245,44.006704212237786
21.54692646,1.922037840679158,-0.5912931929365529,38.240108963804616
21.55697246,3.9591200064079906,-0.8690228305058514,40.80446340883758
21.56701846,2.9746584827649656,-1.8900511331170742,42.24053880350308
21.57706446,2.9099934242728973,-2.653712301990359,42.62288370679204
21.58711046,-0.526525973679665,-6.662374839566259,39.00830007418721
21.59715646,2.2910535026692065,-2.836654018847351,36.95306636996211
21.60720246,3.479367399815928,-3.11369663163809,40.31969444233097
21.61724846,5.1925136331281,-1.2159707907906745,40.19810388383718
21.62729546,3.1421837788969835,0.6053991843237032,37.82390762716839
21.63734146,7.71885315421521,-2.299045072861634,41.99847128938125
21.64738746,6.734443841493531,-2.3648220178084998,43.12800692350481
21.65743346,6.783358741557949,4.897660442539232,37.241717567531
21.66747946,5.634868457388518,1.9343712467716272,36.9547812681696
21.67752546,9.852704616954464,-2.5880890592986456,44.66221759118909
21.68757146,8.392392989743634,-5.354996275416919,45.24455639364788
21.69761746,2.1468604732881644,-3.5709966591135025,34.597500439251355
21.70766346,3.2243448110332324,-7.29428292058444,35.189941366093116
21.71770946,5.7167906653531935,-5.045646658133437,36.18274698380803
21.72775546,2.1442739078793838,-0.70519112860567,28.753239322530032
21.73780146,-2.6963803857567368,-3.969507399530941,28.36290702851649
21.74784746,2.692952436560213,-5.147136037957343,36.9783722550755
21.75789446,1.1115953403898946,-2.898936130092144,35.435147443475415
21.76794046,-1.3403676287929376,-1.7978334390766497,29.445390696509033
21.77798646,2.1458738857958166,3.8592550379926975,29.387749512166614
21.78803246,-2.6157363715642483,2.0220680833422393,31.21044487375842
21.79807846,-3.576908692336116,1.5263919039835265,28.891111439019035
21.80812446,0.026946690030084153,0.16065819904460735,29.09173645124873
21.81817046,1.7880983737336071,-1.6654895707344872,31.444386932326072
21.82821646,1.3947217069330486,-1.1041382959000763,27.981589099805138
21.83826246,6.133758552362402,5.856153801487792,29.40772496220965
21.84830846,2.6131913850544537,1.5750249786699757,31.449863655629056
21.85835446,8.565371139651191,0.651063691786163,34.5119872572419
21.86840046,11.002842797046515,0.08364630491850102,33.424955307616706
21.87844646,10.348076402117194,-3.5535222805997675,30.95475493071311
21.88849346,9.767708800389961,-3.720015273610766,28.16452973964138
21.89853946,10.902647895031045,0.020858135458643564,30.14235086900755
21.90858546,7.4511293984463585,1.381319370343029,29.21313083621809
21.91863146,5.374124279836604,-2.2853711520697897,27.930246625573233
21.92867746,1.5757182410589248,-4.039299198458568,24.811948429817342
21.93872346,2.0076696132141416,-2.983028802399126,18.490150742977796
21.94876946,2.8042248739457833,1.9756986154347744,16.10712628451632
21.95881546,3.040424827849553,1.7861290884624383,22.540024297763416
21.96886146,0.325682980415799,2.2896319621288255,22.31852407963676
21.97890746,2.350644351454038,4.7071339088278,22.431095705403067
21.98895346,6.474248472833025,2.3504482797696755,27.509177416663412
21.99899946,7.232906933726631,1.7072928346759126,24.959430132524155
22.00904546,4.137689093564743,2.3770930135654487,20.867354262020292
22.01909246,3.4604568196322614,2.5140102018958537,21.906885582076434
22.02913846,1.9200130707238403,1.3073717724401344,21.23607966450403
22.03918446,2.0316293885408214,-0.26863895650893016,17.598108943523705
22.04923046,3.3355001245328757,-3.1838099676251543,17.387246629635364
22.05927646,7.6820027928678645,-2.146004829357372,19.65194021334679
22.06932246,7.622092296138563,0.8584005065840337,19.52730291639065
22.07936846,5.011217967200462,-1.031269779935212,19.06365920268204
22.08941446,7.149666941660316,1.231662757335725,16.431247687060026
22.09946046,8.706763887627869,0.2037242302926466,16.869556211208653
22.10950646,8.544169998684726,1.607719221475668,16.74069808714152
22.11955246,6.918575446569529,-2.6017334588806036,14.613615103168375
22.12959846,7.367063858582607,-0.1408470073157033,15.533976083927119
22.13964446,8.049432165176507,3.1846808142632432,16.157341727373193
22.14969146,8.295324663880747,0.7138756217655808,18.314180392358963
22.15973746,5.370949680213688,2.2631484190113813,13.154697869203092
22.16978346,6.449822443949589,0.7498333708084176,14.090459655968903
22.17982946,9.16330823730507,0.8486871591370593,18.016215518079136
22.18987546,5.705591383168486,-0.603617767645898,18.516079409263114
22.19992146,5.118908421860805,0.2058503331691089,15.376786029399117
22.20996746,4.751112777349428,2.7865343414957677,14.347821093987402
22.22001346,4.876597843867266,0.7228212723929395,16.134990798661946
22.23005946,3.551472934308266,-0.11346976464707058,13.22602257807885
22.24010546,5.39445727695131,-0.018919376283226652,12.98402890960011
22.25015146,6.7913165496158125,1.329722196765879,11.931862048137475
22.26019746,6.762158655993255,0.4204574537187402,14.11158815157981
22.27024346,3.928538874687588,0.2789435002860596,10.659147244618127
22.28028946,4.8289553766121,1.0371182161981498,10.405278037450625
22.29033546,3.598867805442219,1.656718231941109,7.536987127926211
22.30038246,4.307812072990131,2.536545296109741,6.9967753538445105
22.31042846,4.898779046833025,1.881509711140722,8.899281868060683
22.32047446,3.8557327639530614,1.5509614205691462,8.96075140683644
22.33052046,4.772872798545465,-0.8757554135672929,11.284148598568699
22.34056646,6.577037500259384,0.6686511873951281,12.928461494012936
22.35061246,3.143635077733011,0.3237897459541892,9.780611588806927
22.36065846,1.8063895955048062,1.5699255454422207,7.381531814413786
22.37070446,2.7258661001155047,1.1331010676602642,7.728088183525323
22.38075046,3.204682227635824,-0.882599762392996,9.181221436181824
22.39079646,2.893736531983388,1.503435228159198,6.671373721360448
22.40084246,5.818189259786186,1.8718342009103246,5.371118554975253
22.41088846,8.821500050306891,0.4206593737100273,8.80534541822543
22.42093446,7.371717496514211,-0.7686957648647318,7.750750912735038
22.43098046,5.388163888322294,-0.07652705762339754,4.993933480166767
22.44102746,9.213641020666385,2.844891015129156,9.101765965064311
22.45107346,7.66944727045271,4.635402376357307,10.508639960666613
22.46111946,4.846439597579486,2.6510492952473728,8.293494946514883
22.47116546,5.170694627757314,0.3366278862198788,10.476130949914314
22.48121146,8.084308706716158,2.7152315173369055,8.201167950002775
22.49125737,4.06650697072137,0.3547521365138524,4.4823779857220725
22.50130338,4.467032975697273,-2.570375578186905,3.75892008943748
22.51134938,5.101289377966387,1.983152205609415,2.94377978160583
22.52139538,1.9478437446594479,-1.1809362980791864,4.752559349150297
22.53144138,1.5211402585685183,-1.209078799674965,4.735341031579345
22.54148738,4.749723079028732,3.3818461407663234,5.075425110429653
22.55153338,3.5782574442102586,0.3733947590642362,7.871291965230441
22.56157938,1.7936715931218539,-0.04630457292161849,4.839768738968443
22.57162538,1.6814565098167649,2.680311661790627,1.2734192902480976
22.58167138,3.4077595588341594,0.2800224268050938,4.605515357797603
22.59171837,5.177527717137351,0.41285674956369467,5.6690139486336175
22.60176437,3.939424355442818,0.38090310715511366,4.856514529482423
22.61181038,4.662734272558994,-0.6627229983476821,6.1833687295459185
22.62185638,4.868798499497009,0.2103736070602447,6.712560083897743
22.63190238,3.6594039636895723,0.7666460150137278,5.0278481743808285
22.64194838,3.7953166856875034,-1.253823549175009,5.885932108652227
22.65199438,5.3743115033998,0.3370656167225214,5.322749927331877
22.66204038,4.027280437186067,0.36427497507836937,4.913534532266924
22.67208638,5.838277505994656,0.46680014198094993,6.785543803506286
22.68213238,4.271315212458487,0.4895776846184204,7.17118426506654
22.69217838,3.82140735972052,1.74276098081108,4.095454836777385
22.70222437,4.801792828787066,1.273860693046043,3.5276862959143322
22.71227037,4.425060025622559,-0.7107381513837717,5.065230446283149
22.72231638,4.867102977245368,-0.41334079372048,4.465539091872971
22.73236238,4.339547613171806,0.7195247787374134,4.268560408091767
22.74240938,3.713014013480475,-0.13343798351801708,4.51974068510151
22.75245538,3.4768213785330775,0.8234283034871336,4.882925321030774
22.76250138,2.3016047030563302,0.1753233990905875,3.9954924245755876
22.77254738,2.817910986515864,0.279511650454701,5.792850559904396
22.78259338,2.290068907548406,0.23661319137542042,5.317505978957577
22.79263938,2.176754346725169,-0.6531552232669051,4.286838777432041
22.80268538,2.8080203726097928,-0.5899350679457666,4.634600806971649
22.81273137,3.738127348020775,0.6486174392296079,4.727632479898243
22.82277737,2.1072380129953823,0.33589289310330067,4.697025849780669
22.83282338,1.5490373149129175,-0.5767496513832591,3.593352863986735
22.84286938,2.789460699394244,0.4799426665099898,3.6801420678722154
22.85291538,2.9632659519617373,0.8519461494560279,4.650726813198333
22.86296138,2.631506367210312,-0.5725436960317791,5.598127512075585
22.87300738,4.395614601092551,1.5989867082546436,5.331849588845936
22.88305338,2.5674606705544774,0.7308026187165707,5.035394760882427
22.89309938,3.4531051973295845,-0.872439589892939,6.2299337556311185
22.90314638,4.230627405528711,0.9245035569076533,5.528010388823479
22.91319237,3.1551092957861573,0.3961504291067446,5.041746946784173
22.92323837,3.6222659002642743,-0.888151071538025,7.010967283989295
22.93328438,3.2422747625472343,1.7851424776448999,4.008192243052152
22.94333038,3.378350000284465,0.3330718447909788,4.874270400148934
22.95337638,3.050439034997934,-0.6913022334391917,5.748982686950617
22.96342238,4.56737904557878,0.01908143372609906,5.572826279223548
22.97346838,3.5264029521925018,0.043337491754866335,5.708480914820067
22.98351438,2.68345695858051,-1.517416194228291,5.199123980393817
22.99356038,4.354062548718881,-0.7074619215895297,5.324640269456626
23.00360638,4.536266493610854,0.10131610738587532,5.601420974896697
23.01365238,3.0807370630781556,0.04257770450157838,4.863252834303061
23.02369838,1.8602923252638455,0.07168474529054485,2.5516834288573444
23.03374437,3.555407029571276,0.2539618339959009,4.442957155066121
23.04379037,4.718066829627137,0.4646480305694136,6.613159837137136
23.05383638,2.552738724347556,0.6718802981860528,4.300296958523598
23.06388338,2.7390167369512004,-0.46605726913332374,5.680347332284013
23.07392938,4.431509670228859,1.2211430900538676,5.419716253608271
23.08397538,3.811646594719449,0.8219080964994274,6.836485236617515
23.09402138,1.7903093303755815,-1.9006507022957004,4.985829515083678
23.10406738,3.6530440499594428,-0.9777753450564513,7.3597904986676745
23.11411338,3.7656184526116294,-0.018340649580544596,6.35777466203236
23.12415938,2.7327305116171,-0.9089871049344029,6.434531332663822
23.13420537,1.4619203222102528,-1.156128313399381,3.5667178886937614
23.14425137,3.238014245455025,0.5271653096331117,4.469768969876668
23.15429738,1.6147769857590681,0.17402241486670816,6.9839914943320665
23.16434338,-0.5814185015517508,-2.684378253725237,3.0155178223347354
23.17438938,1.5097786439341092,-1.234847521379275,3.8917638232184686
23.18443538,3.470335781644255,-2.3728063255642717,6.848617365778373
23.19448138,3.151778580358831,1.4975131408835232,5.222767964322154
23.20452738,-0.596591717204356,0.6454613589779173,1.2767638321204375
23.21457338,3.103536976692576,-1.8705561824416714,8.599658089858426
23.22461938,5.007804892146085,2.1180571567480833,6.206411410819737
23.23466638,0.9906623575614076,1.1894298212387067,2.715219067409171
23.24471237,4.482794452880978,-2.7386076934984107,6.943855428698081
23.25475837,4.224162331617235,2.611706795042344,6.050068520379812
23.26480438,1.5087738240983943,2.6409441087734686,4.371818483909896
23.27485038,0.20888262539219338,-1.1745732920151832,4.164491638574731
23.28489638,1.8976855177840797,0.1316749676062281,5.526670519013097
23.29494238,4.9819094004943505,1.5028824180559264,6.702722286583251
23.30498838,2.6237745831464494,1.1084224897869086,5.529894782783124
23.31503438,1.3549890865417877,-0.27762879240804755,3.590235075636622
23.32508038,4.180712509838171,-0.9463687560740808,6.695385189447126
23.33512638,3.2825340505552174,-0.2917450670777964,4.968034165852531
23.34517238,2.6295254829965597,-0.2348307890097816,1.9635413761238931
23.35521837,5.334653213958608,-1.8206910372712937,4.942359598985206
23.36526437,4.912441887751641,-0.09044816923557189,6.164332142328472
23.37531038,3.109504533173126,0.28368009863292754,5.250021029919638
23.38535638,3.1224991122997534,-0.9847540996871811,6.288409300105885
23.39540238,3.1710054223604387,1.2709026425357153,5.387753814000336
23.40544938,2.485073705968361,0.9515240188004048,4.727859763070942
23.41549538,2.725329205481368,-1.211603940614854,5.938677235793514
23.42554138,2.13368337766444,0.22468737193809676,3.373243659573003
23.43558738,3.4467624258356713,0.5863405930425497,3.565510928638684
23.44563338,3.464444889263909,-0.7452987645211339,4.082935088517512
23.45567937,3.699103510409558,-0.19569921932225792,3.525279120030976
23.46572537,3.956515294990322,-1.1248436378951792,4.680201989460648
23.47577138,4.126891887527794,-1.4825753444238274,5.887087946942726
23.48581713,3.7199222314539666,-0.8429084556764218,5.276382092570859
23.49586313,2.9709154332345906,-0.733247979766072,4.190316215300165
23.50590913,3.7338381909799283,-0.6859935362625463,4.8277199769321335
23.51595512,4.12026220071958,-0.3424721910292291,5.726298738922891
23.52600112,3.0091866172280803,0.07601187350259707,4.334425328973191
23.53604713,3.781043587324896,0.42199813008018755,4.805588549220765
23.54609313,3.8539836982170987,-0.29372693285165624,5.058988212873535
23.55613913,3.9605315298655386,-0.31632864795081167,4.317618621608623
23.56618613,4.008101367259041,-0.2710822464596453,3.699820562793839
23.57623213,5.012092648839954,-0.24937870639074436,5.147163678901585
23.58627813,4.066824525035808,-0.5602288802197642,4.517008036132267
23.59632413,4.177677134573308,0.011649602112222091,3.7192345313037247
23.60637013,4.7160548142481,0.16789075835310294,4.267102206247958
23.61641613,4.002551211795414,0.14523191353769063,4.020274419079251
23.62646212,3.950961731897095,-0.8444462645273366,4.343279671158039
23.63650812,4.957131496654513,0.1550281446441708,4.688337056924437
23.64655413,3.805658073333337,-0.024317140380703695,3.8597739967042273
23.65660013,4.463227824854034,-0.08117715166561215,3.3227878422642343
23.66664613,5.8493671761768535,-0.37734837932370063,5.603692114533009
23.67669213,5.611782785618863,-0.009394497104340184,4.8055555938910945
23.68673813,4.761228807708738,-0.06097113857687675,3.223243223912543
23.69678413,4.568737377467922,-1.1883719536256425,2.9775727410763873
23.70683013,6.8224277961121205,0.20129010492313454,4.735151855460295
23.71687713,6.14607607707102,0.1275744483538707,4.459150777761014
23.72692312,5.798639418385679,-0.5213290889606109,4.201836741542367
23.73696912,5.9528650441149376,-0.5720491681484952,4.736738910826714
23.74701513,4.959870748620755,-0.3384071705898693,3.3968867113221073
23.75706113,5.26628745184365,0.18028780807881595,3.2454920541697607
23.76710713,6.200445278637617,-0.6626268380074776,4.863321159074253
23.77715313,5.588513731550473,-0.6750631761366129,4.278181771910555
23.78719913,4.0549589574881075,-0.30031954388956483,1.7200082648324315
23.79724513,5.923884377332361,-0.9169749535480674,2.9812502399362506
23.80729113,6.2447288751528545,0.6579388808593769,3.790979909984683
23.81733713,5.168031239490815,-0.49782421603101007,3.1741182964839036
23.82738313,5.1239552625675095,-0.6993325495308612,2.501027625082083
23.83742912,5.57897435253824,1.2363992779269006,2.4875096247078132
23.84747512,6.159987949560821,-0.7274434111218873,4.605440591642026
23.85752112,5.264056550561261,-1.602335364383246,3.6872996470806867
23.86756713,5.427049944396419,0.5186289571135861,2.453388064792501
23.87761413,4.726316880094801,-1.5997065344962007,2.8226168101293805
23.88766013,5.205229516703628,-1.0431778944517471,2.68666388574691
23.89770613,4.685896361325391,0.6738086231047672,1.9654652796726064
23.90775213,3.718121005519499,-2.8703016776469217,3.109483091287415
23.91779813,3.47013210830922,-0.7833905022500681,0.8668158044141968
23.92784413,3.62871433687792,0.9039251203557362,-0.30867339211567923
23.93789013,5.079060642706914,-1.733284324820088,3.047857843981965
23.94793612,3.706859783526335,-2.4680406009507747,2.2185379728021375
23.95798212,2.654340444776717,-1.9946276375702032,0.35309754133906235
23.96802813,4.960038585898802,-0.525853788530642,0.012313478600916805
23.97807413,7.029337690612698,1.1782367620058214,2.6610523383577633
23.98812013,6.392857398788598,-2.1176113985743603,4.345501186690026
23.99816613,6.583081480877692,0.04955808866904017,3.6259822574658562
24.00821213,6.5080531190097615,-1.0751665503834444,5.817159183153727
24.01825813,8.491773587359301,0.012417450213743441,6.473604562393977
24.02830513,5.2384704996426965,-1.8738662711411944,3.385580543225416
24.03835113,4.965755270874117,-1.3912199401598722,2.00014406155552
24.04839713,5.181816758380588,-1.8066897753768485,3.0747860704268697
24.05844312,5.820346251327996,-1.3466451808980506,5.568210281623735
24.06848912,3.7114420714912892,-1.5119859673779232,3.150935803957354
24.07853513,2.63837106273744,0.6053295080123228,-1.0777767146117188
24.08858113,4.864952298282583,-2.793102090514774,1.904301734856995
24.09862713,4.87123070067998,-3.586589149944581,4.352713066627878
24.10867313,4.777124357102616,-6.083959514408935,2.2989129700634723
24.11871913,8.307301798479411,-2.499544326052704,8.70286599323656
24.12876513,6.337217152333682,-3.2554862618673694,11.640954590208889
24.13881113,2.302887797504077,-4.006353648894045,7.777845289473234
24.14885713,2.381115198984642,-7.057726676183348,5.636856524799571
24.15890313,9.041880438532337,-3.7986428450725147,14.891335179430666
24.16894912,5.48373679143587,-3.342799710105474,10.112900766898537
24.17899512,3.202706105110515,-6.596405494757949,10.319935379094737
24.18904213,5.2660766639359995,-4.566164658972038,10.026956854407175
24.19908813,6.715058864742455,-2.2334949160570625,11.58477349556027
24.20913413,4.641077777775973,-5.438450444352242,10.436639980634991
24.21918013,3.5237287972178137,-4.7159566863993305,10.704688908366002
24.22922613,2.5422534368908867,-2.9905532211843524,10.518242324958663
24.23927213,1.5080130271936698,-4.182225286867185,12.90676626046029
24.24931813,2.2180889595033544,-6.348149012394984,13.770729066952738
24.25936413,4.452617991458718,-1.6485608244174772,15.49785734754569
24.26941012,0.5888232853127434,-4.449406222290119,11.184840501876907
24.27945612,5.131198776174086,-5.453846080310707,18.264436795073475
24.28950213,4.571639506953331,-3.318512870107307,22.63959967443067
24.29954813,-1.928652195781575,-2.0350845589567106,21.623923795242092
24.30959413,-3.2136126330442085,-3.1428552906255294,21.332803356124916
24.31964013,1.9343134938487145,-2.5641066726703965,19.832804669317532
24.32968613,5.336894676748263,-2.323752108961608,20.901057788049627
24.33973213,0.2752344598917464,-4.037134879194174,15.33301294447041
24.34977813,0.08687496764477062,-2.5122682694683363,17.793098475890105
24.35982413,-0.12174449352636164,-2.642629222989265,23.562866558043368
24.36987113,-3.833833859886937,-3.8612603801427507,21.62337550892906
24.37991712,-0.16963420762928408,-2.978800249863756,19.244398919596183
24.38996312,-0.11426865627660918,-3.7519061989486353,21.31201247608069
24.40000913,0.8632013018673681,-4.442921358740206,24.75478036430428
24.41005513,-0.24626787985174176,-6.14734739321818,25.00810265606
24.42010113,0.4723396030746639,-5.055397545777072,24.619027245018444
24.43014713,1.6313268624049884,-5.788241895048908,30.552203045433856
24.44019313,3.4913158901939756,-2.5603458548174727,29.994893332881357
24.45023913,2.5796701302567566,0.4760129862669098,25.373356152571674
24.46028513,1.791106637040568,-2.885089327966096,28.53259273870023
24.47033113,1.481703154501977,-4.487532441781715,27.72452061830826
24.48037713,0.9899525218931268,-3.7287973553253515,28.79318432505142
24.49042333,0.5896502922947278,-1.3679313549355012,28.655796836468163
24.50046933,-2.0207922234770583,-2.30762639320647,27.014132785125824
24.51051533,-0.1136704706204449,-1.790878501915245,29.652448017376713
24.52056133,-0.5807309704233553,-0.23245714072906,29.309177902985528
24.53060733,-1.0965544685028388,-4.24029089812797,32.95868218998553
24.54065333,2.412896245247026,-6.210850543608525,33.53524798743368
24.55069933,6.052074620232415,-3.4970946570994688,33.56527180439889
24.56074633,8.680263096757557,-3.0108869339988895,39.79445822664128
24.57079233,6.486783911980888,-4.66832454391918,39.31344127278327
24.58083833,11.077360274708626,0.019648082464366154,33.72764759149848
24.59088433,4.940991849889516,0.6052009353251578,35.239596638481046
24.60093033,5.122989023094128,1.5402836759151102,36.16105407479941
24.61097633,0.8449563155006059,-1.5870890756928264,36.51532090023509
24.62102233,1.9318309671883578,-0.9723257941681805,34.53591567411778
24.63106833,-2.6092196022975003,-2.2050150822907293,36.037577381772685
24.64111433,6.242805117044154,-3.1160218056942908,38.633216321303266
24.65116033,3.7279565595498827,-1.3489507577267847,37.25621364514672
24.66120633,-1.3195220520863291,-4.112734800907951,36.14553342580519
24.67125233,2.264653929913391,-5.15714483764771,37.9906230779233
24.68129833,4.034021197723673,-3.555877652425915,34.03553279248126
24.69134433,1.3124177213754762,-5.521423724168421,38.00473775497476
24.70139033,1.9486628200043297,-2.105294973568854,35.11907144426082
24.71143633,1.49926542464892,-2.1151662654262466,36.80943814929366
24.72148233,-0.011247445808798403,-2.2115950419755146,37.36793786371991
24.73152833,2.015092675489578,-2.5678959854869863,39.03508094981237
24.74157433,1.5932070170777466,-0.45939256508687426,36.566643070870406
24.75162033,-1.7931541426938702,-1.2812602899479375,34.65733869658939
24.76166733,4.607608629725674,-1.1112189352204294,39.122704511070324
24.77171333,3.0117838453899473,-0.6556419420918572,37.65718001134569
24.78175933,3.0491455840285275,0.5100215000627427,34.520119606722666
24.79180533,3.7692297010592934,-0.8942961742903137,38.64991771918119
24.80185133,5.979280599914612,0.8338436957165646,39.75728648016516
24.81189733,4.177656326917263,-0.8207871565691574,38.27032616084969
24.82194333,7.009838863944695,-1.4676929646360737,36.81545820590155
24.83198933,6.51853096020274,-2.037489512260941,39.436552814596006
24.84203533,6.55693860329159,-1.0314722116427795,41.98414572485051
24.85208133,3.6559492585598075,-1.125847540058185,38.865267408758314
24.86212733,3.5050164796319665,-2.44354657000374,35.285730003696536
24.87217333,5.484729683988072,-3.988394616115839,38.58163835899699
24.88221933,6.5631393173440316,-1.1083700388092654,37.19185129421015
24.89226533,1.249334996013924,-0.9182662003504025,35.309227062843675
24.90231133,3.308857891162618,-0.33709101365575134,35.164737370361465
24.91235733,4.390714873279866,-1.8461347742920744,35.95675176820508
24.92240333,4.510345356961236,0.3185015855623888,33.06252842518956
24.93244933,0.10821151637094062,0.7891197159315803,33.652541887254685
24.94249533,6.024857242925711,0.542720714363326,36.35846833306605
24.95254133,7.472376695266163,4.3624695754243055,34.29644801737462
24.96258833,2.35092046697417,0.29331288036983566,35.92360973864095
24.97263433,5.512811726401051,-0.5698211526751028,35.354699195465045
24.98268033,5.615012727050716,2.3610730032590763,32.96527169079887
24.99272633,5.58282711744669,-0.7190080864364983,35.77805575051687
25.00277233,4.574872022922457,-0.465534643853011,29.064922695694044
25.01281833,5.842024729235104,0.5778930554374285,30.063974840402402
25.02286433,5.1996827236204,2.6343701238072392,25.834631809924552
25.03291033,-0.25341586995029797,0.8001434649212132,22.661681880459753
25.04295633,-0.323798386843443,-4.297951615625875,28.109014300106352
25.05300233,-0.4684772025733435,-1.9891836559109148,25.27790706410401
25.06304833,0.05647996815304445,6.320172667685876,16.673436795470725
25.07309433,1.868332176114388,4.302223371036202,23.220656345982903
25.08314033,-0.9329222443304837,5.199146798603251,24.325023289726875
25.09318633,-1.7489461260355172,5.907857817406713,18.69313598821338
25.10323233,3.397802701556997,8.635779231092556,19.09436373073052
25.11327833,1.4136495353827734,6.009623706745113,18.096006948526416
25.12332433,8.20982857601564,2.883256448478963,24.519422821896285
25.13337033,10.811624884080148,6.305696245940052,26.35811484683986
25.14341633,4.794298651322089,8.672638109285696,17.771207581221518
25.15346333,4.426252725786917,3.4979572201260147,16.3166273813657
25.16350933,5.250412234740694,3.167525032241024,17.07502632513362
25.17355533,2.5127281476948027,5.310575524223859,11.245069968973517
25.18360133,4.708214773813941,0.878913465458522,11.346110338213675
25.19364733,8.092719017164322,-0.4750182003787015,18.74299632946413
25.20369333,8.237259026419176,0.27132523321087354,12.516960135986539
25.21373933,16.68880136306974,4.508546229204653,7.478758772476068
25.22378533,24.768248766954613,0.0727210056752038,12.103566282252933
25.23383133,21.402102616215323,0.06228703956067135,15.634162222293744
25.24387733,4.734191641892421,9.529551443248302,3.364462531847776
25.25392333,1.0759689644313153,4.904710063988281,6.968168133121992
25.26396933,-2.832216861919776,0.568613111873388,10.090833784322955
25.27401533,-3.0906310581417205,5.3653685303144645,0.19377813946343658
25.28406133,-0.37869003800332274,2.1555408112405035,-1.4762105902364184
25.29410733,7.441151992563933,-0.9536319234574065,2.043173023068472
25.30415333,4.133142203261527,1.3677210968789697,-2.064615915852438
25.31419933,3.1350559088670997,4.082183039714098,-1.0000344805718644
25.32424533,1.6674126807437035,5.922392423524065,-0.5474338650918216
25.33429233,1.3078171080447898,8.919672666155156,-1.2550410338101576
25.34433833,-0.2569127369344662,4.803213308737761,-3.9367044219676988
25.35438433,4.774749571738727,3.34128017048403,-4.264571401681045
25.36443033,8.110759271440562,1.558530333683229,-4.887219640441267
25.37447633,5.689615003478472,0.3710442396290911,-9.128593477020441
25.38452233,7.981938204116552,1.006305210455843,-8.4260333723997
25.39456833,9.02458753847284,4.074848337770169,-1.6333027381521918
25.40461433,9.246580152982256,5.585328461066123,0.2503214857505518
